sub_id,task,is_practice,block,trial,target_01,target_02,task_relevance,category,orientation,identity,duration,stim_jit,SOA,onset_SOA,SOA_lock,pitch,texture,vis_stim_time,time_of_resp_vis,has_response_vis,trial_response_vis,aud_stim_buff,aud_stim_time,aud_resp,trial_accuracy_aud,time_of_resp_aud,trial_first_button_press,trial_second_button_press,fix_time,JitOnset,trial_end,wrong_key,wrong_key_timestemp,TargetScreenOnset,RT_vis,RT_aud
SX103,prp,0,1,1,letter_07,false_font_16,non-target,false_font,center,false_font_03,1,1.96666666666667,0.116,1.116,offset,1100,133,1791.41294438711,NaN,0,cr,1,1792.5299405,1100,1,1793.5101005,1100,0,1792.4129216484,1793.41288990324,1795.3714053,NaN,NaN,1782.96314843227,NaN,0.980159999999842
SX103,prp,0,1,2,letter_07,false_font_16,non-target,letter,right,letter_08,1.5,1.6,0.466,1.966,offset,1000,58,1795.37950817743,NaN,0,cr,2,1797.3457927,1000,1,1797.8798396,1000,0,1796.87948759679,1797.37951243227,1798.9712084,NaN,NaN,0,NaN,0.534046900000021
SX103,prp,0,1,3,letter_07,false_font_16,non-target,false_font,center,false_font_09,0.5,0.8,0.116,0.116,onset,1100,139,1798.97942468711,NaN,0,cr,1,1799.0954639,1100,1,1799.8695576,1100,0,1799.47940888711,1800.97938474195,1801.7712212,NaN,NaN,0,NaN,0.774093700000094
SX103,prp,0,1,4,letter_07,false_font_16,irrelevant,object,center,object_17,0.5,0.916666666666667,0,0.5,offset,1100,207,1801.77935549679,NaN,0,cr,1,1802.2804464,1100,1,1803.1061593,1100,0,1802.27934668711,1803.77931664195,1804.6878529,NaN,NaN,0,NaN,0.825712899999871
SX103,prp,0,1,5,letter_07,false_font_16,non-target,letter,center,letter_15,1,0.766666666666667,0.232,1.232,offset,1100,25,1804.69601298711,NaN,0,cr,1,1805.9282348,1100,1,1806.6760701,1100,0,1805.69599628388,1806.69595749356,1807.4545602,NaN,NaN,0,NaN,0.747835300000133
SX103,prp,0,1,6,letter_07,false_font_16,non-target,letter,center,letter_17,1,0.883333333333333,0.116,1.116,offset,1000,27,1807.46256028711,NaN,0,cr,2,1808.5787583,1000,1,1809.2341023,1000,0,1808.46253268388,1809.46256529356,1810.337734,NaN,NaN,0,NaN,0.655344000000014
SX103,prp,0,1,7,letter_07,false_font_16,non-target,letter,center,letter_02,1.5,1.31666666666667,0,0,onset,1000,12,1810.34582617743,NaN,0,cr,2,1810.3467701,1000,1,1810.8990294,1000,0,1811.84579047743,1812.34577718711,1813.6543636,NaN,NaN,0,NaN,0.55225930000006
SX103,prp,0,1,8,letter_07,false_font_16,non-target,letter,left,letter_19,0.5,1.21666666666667,0,0.5,offset,1000,49,1813.66240104195,NaN,0,cr,2,1814.163464,1000,1,1814.90791,1000,0,1814.16240628711,1815.66235431292,1816.8709542,NaN,NaN,0,NaN,0.744445999999925
SX103,prp,0,1,9,letter_07,false_font_16,irrelevant,face,left,face_17,1.5,0.866666666666667,0.116,0.116,onset,1000,107,1816.87899773227,NaN,0,cr,2,1816.9951436,1000,1,1817.5845753,1000,0,1818.37895226131,1818.87895124195,1819.7374564,NaN,NaN,0,NaN,0.589431700000205
SX103,prp,0,1,10,letter_07,false_font_16,non-target,letter,center,letter_04,1.5,1.41666666666667,0.466,0.466,onset,1100,14,1819.74559738711,NaN,0,cr,1,1820.2117037,1100,1,1820.9687599,1100,0,1821.24556244195,1821.74554305163,1823.1541533,NaN,NaN,0,NaN,0.757056199999852
SX103,prp,0,1,11,letter_07,false_font_16,non-target,false_font,center,false_font_13,1.5,1.4,0.232,1.732,offset,1100,143,1823.16217847743,NaN,0,cr,1,1824.8942364,1100,1,1825.5800228,1100,0,1824.66214110647,1825.16212874195,1826.5540012,NaN,NaN,0,NaN,0.685786400000097
SX103,prp,0,1,12,letter_07,false_font_16,irrelevant,face,right,face_19,0.5,1.63333333333333,0,0.5,offset,1000,129,1826.56210441292,NaN,0,cr,2,1827.0632371,1000,1,1827.6928179,1000,0,1827.06207930647,1828.56204224195,1830.1872238,NaN,NaN,0,NaN,0.629580799999985
SX103,prp,0,1,13,letter_07,false_font_16,irrelevant,object,left,object_20,1.5,1.2,0,1.5,offset,1100,230,1830.19533644195,NaN,0,cr,1,1831.6963978,1100,1,1833.1315271,1100,0,1831.69530782259,1832.19530027743,1833.3870465,NaN,NaN,0,NaN,1.43512929999997
SX103,prp,0,1,14,letter_07,false_font_16,irrelevant,face,left,face_02,1.5,1.73333333333333,0,1.5,offset,1000,92,1833.39527003227,NaN,0,cr,2,1834.8963745,1000,1,1835.4265352,1000,0,1834.89522953227,1835.39520939679,1837.1204227,NaN,NaN,0,NaN,0.530160699999897
SX103,prp,0,1,15,letter_07,false_font_16,non-target,false_font,center,false_font_04,1.5,0.866666666666667,0,0,onset,1000,134,1837.12851007743,NaN,0,cr,2,1837.1294506,1000,1,1837.6615373,1000,0,1838.62847917743,1839.12846568711,1839.9869255,NaN,NaN,0,NaN,0.532086700000036
SX103,prp,0,1,16,letter_07,false_font_16,irrelevant,object,left,object_09,0.5,1.91666666666667,0.466,0.966,offset,1100,219,1839.99510089679,NaN,0,cr,1,1840.9611776,1100,1,1841.5569003,1100,0,1840.49509083227,1841.99504874195,1843.9036136,NaN,NaN,0,NaN,0.595722700000124
SX103,prp,0,1,17,letter_07,false_font_16,non-target,letter,right,letter_16,1.5,0.883333333333333,0.232,1.732,offset,1000,66,1843.91167224195,NaN,0,cr,2,1845.6438085,1000,1,1846.1295156,1000,0,1845.41163415163,1845.91163389679,1846.7868658,NaN,NaN,0,NaN,0.485707100000127
SX103,prp,0,1,18,letter_07,false_font_16,target,false_font,left,false_font_16,1.5,1.21666666666667,0.116,1.616,offset,1100,166,1846.79494288711,1847.4605282,1,hit,1,1848.4110402,1100,1,1849.0089507,1,1100,1848.29490988711,1848.79489234195,1850.0033581,NaN,NaN,0,0.665585312885923,0.597910500000125
SX103,prp,0,1,19,letter_07,false_font_16,target,false_font,center,false_font_16,1.5,1.21666666666667,0.466,1.966,offset,1000,146,1850.01152958711,1850.794513,1,hit,2,1851.9776092,1000,1,1852.6607354,1,1000,1851.51149983227,1852.01148524195,1853.2198738,NaN,NaN,0,0.782983412885869,0.683126200000061
SX103,prp,0,1,20,letter_07,false_font_16,target,letter,center,letter_07,1.5,1.75,0.466,1.966,offset,1100,17,1853.22812177743,1854.2375608,1,hit,1,1855.1941792,1000,0,1856.9204904,1,1000,1854.72807954195,1855.22806894195,1856.9698002,NaN,NaN,0,1.00943902256518,1.72631120000005
SX103,prp,0,1,21,letter_07,false_font_16,irrelevant,face,left,face_09,1,1.61666666666667,0.466,1.466,offset,1000,99,1856.97803014195,NaN,0,cr,2,1858.4441118,1000,1,1859.2415376,1000,0,1857.97800200647,1858.97798399679,1860.5865199,NaN,NaN,0,NaN,0.797425799999928
SX103,prp,0,1,22,letter_07,false_font_16,non-target,false_font,right,false_font_19,1,0.9,0.232,0.232,onset,1000,189,1860.59460103227,NaN,0,cr,2,1860.8269135,1000,1,1861.6755571,1000,0,1861.59458575163,1862.59455735163,1863.4864757,NaN,NaN,0,NaN,0.848643600000059
SX103,prp,0,1,23,letter_07,false_font_16,irrelevant,face,left,face_06,0.5,1,0.116,0.616,offset,1100,96,1863.49453844195,NaN,0,cr,1,1864.1106104,1100,1,1864.6729144,1100,0,1863.99458173227,1865.49448185163,1866.4863995,NaN,NaN,0,NaN,0.56230400000004
SX103,prp,0,1,24,letter_07,false_font_16,target,letter,right,letter_07,1.5,1.05,0.116,0.116,onset,1000,57,1866.49446501292,1867.1485413,1,hit,2,1866.6106952,1000,1,1868.3910242,1,1000,1867.99442774195,1868.49447448711,1869.5361418,NaN,NaN,0,0.654076287084536,1.78032899999994
SX103,prp,0,1,25,letter_07,false_font_16,irrelevant,object,right,object_03,1.5,1.95,0.232,0.232,onset,1100,233,1869.54439535163,NaN,0,cr,1,1869.7764974,1100,1,1870.7688341,1100,0,1871.04435912259,1871.54434706776,1873.4862676,NaN,NaN,0,NaN,0.992336700000124
SX103,prp,0,1,26,letter_07,false_font_16,target,false_font,left,false_font_16,1,0.75,0.466,0.466,onset,1000,166,1873.49436327743,NaN,0,miss,2,1873.960521,1000,1,1875.0125154,1000,0,1874.49426569679,1875.4942603484,1876.2360423,NaN,NaN,0,NaN,1.05199440000001
SX103,prp,0,1,27,letter_07,false_font_16,irrelevant,object,center,object_06,0.5,0.85,0.232,0.232,onset,1100,196,1876.24422614195,NaN,0,cr,1,1876.4763716,1100,1,1877.1545561,1100,0,1876.74421628711,1878.24418869679,1879.086129,NaN,NaN,0,NaN,0.678184500000043
SX103,prp,0,1,28,letter_07,false_font_16,irrelevant,face,left,face_19,1,1.41666666666667,0.466,1.466,offset,1100,109,1879.09416569679,NaN,0,cr,1,1880.5605386,1100,1,1881.1967459,1100,0,1880.09413858711,1881.09412001292,1882.502548,NaN,NaN,0,NaN,0.636207300000024
SX103,prp,0,1,29,letter_07,false_font_16,non-target,false_font,center,false_font_19,1,0.883333333333333,0.116,1.116,offset,1100,149,1882.51075423227,NaN,0,cr,1,1883.6270666,1100,1,1884.3377726,1100,0,1883.51072643227,1884.51070739679,1885.38594,NaN,NaN,0,NaN,0.710706000000073
SX103,prp,0,1,30,letter_07,false_font_16,non-target,false_font,center,false_font_05,1,1.33333333333333,0.116,0.116,onset,1100,135,1885.39401055163,NaN,0,cr,1,1885.5101049,1100,1,1886.3785502,1100,0,1886.39398350647,1887.39396819356,1888.7190944,NaN,NaN,0,NaN,0.868445300000076
SX103,prp,0,1,31,letter_07,false_font_16,irrelevant,face,center,face_14,0.5,1.36666666666667,0.232,0.232,onset,1000,84,1888.72727264195,NaN,0,cr,2,1888.9593099,1000,1,1889.4955176,1000,0,1889.22725834195,1890.72721489679,1892.0857225,NaN,NaN,0,NaN,0.536207699999977
SX103,prp,0,1,32,letter_07,false_font_16,irrelevant,face,right,face_06,1.5,1.05,0.116,0.116,onset,1000,116,1892.09385190647,NaN,0,cr,2,1892.2100915,1000,1,1892.6516563,1000,0,1893.59381279679,1894.09379720647,1895.1356173,NaN,NaN,0,NaN,0.441564799999924
SX103,prp,0,1,33,letter_07,false_font_16,non-target,letter,left,letter_06,0.5,0.75,0.116,0.616,offset,1000,36,1895.14377219679,NaN,0,cr,2,1895.7599845,1000,1,1896.3184941,1000,0,1895.64376558711,1897.14373664195,1897.8856153,NaN,NaN,0,NaN,0.558509599999979
SX103,prp,0,1,34,letter_07,false_font_16,irrelevant,object,left,object_09,1.5,1.73333333333333,0.232,1.732,offset,1100,219,1897.89371755163,NaN,0,cr,1,1899.6257742,1100,1,1900.094978,1100,0,1899.39367779679,1899.89367394195,1901.6188161,NaN,NaN,0,NaN,0.469203800000059
SX103,prp,0,1,35,letter_07,false_font_16,irrelevant,object,right,object_05,0.5,1.95,0.232,0.732,offset,1000,235,1901.62696793227,NaN,0,cr,2,1902.3590476,1000,1,1903.2235965,1000,0,1902.12695056131,1903.62691074195,1905.5687379,NaN,NaN,0,NaN,0.864548900000045
SX103,prp,0,1,36,letter_07,false_font_16,irrelevant,object,center,object_20,1,1.53333333333333,0.232,0.232,onset,1100,210,1905.57686883227,NaN,0,cr,1,1905.8089823,1100,1,1906.2716389,1100,0,1906.57685007743,1907.57681334195,1909.1019239,NaN,NaN,0,NaN,0.462656599999946
SX103,prp,0,1,37,letter_07,false_font_16,non-target,letter,center,letter_20,1,0.733333333333333,0.116,1.116,offset,1100,30,1909.11011159679,NaN,0,cr,1,1910.2261607,1100,1,1910.9719723,1100,0,1910.11009569356,1911.1100793484,1911.8352114,NaN,NaN,0,NaN,0.745811600000025
SX103,prp,0,2,1,letter_16,false_font_04,irrelevant,object,left,object_10,1.5,1.63333333333333,0.116,1.616,offset,1100,220,1925.12641010971,NaN,0,cr,1,1926.7425006,1100,1,1927.3207272,1100,0,1926.62642729679,1927.12635259679,1928.7516262,NaN,NaN,1918.60988589679,NaN,0.57822659999988
SX103,prp,0,2,2,letter_16,false_font_04,irrelevant,face,center,face_02,1.5,0.816666666666667,0.466,0.466,onset,1100,72,1928.75965009679,NaN,0,cr,1,1929.2258684,1100,1,1929.8074638,1100,0,1930.25961483227,1930.75960474195,1931.568219,NaN,NaN,0,NaN,0.581595399999969
SX103,prp,0,2,3,letter_16,false_font_04,irrelevant,object,center,object_13,0.5,0.816666666666667,0.116,0.616,offset,1100,203,1931.57624018711,NaN,0,cr,1,1932.1924441,1100,1,1932.8380843,1100,0,1932.07624008711,1933.57619759679,1934.3846014,NaN,NaN,0,NaN,0.645640199999889
SX103,prp,0,2,4,letter_16,false_font_04,target,false_font,left,false_font_04,0.5,1.01666666666667,0.466,0.466,onset,1100,154,1934.39283735163,1935.3538123,1,hit,1,1934.8589816,1100,1,1936.0308823,1,1100,1934.89282555163,1936.39279948711,1937.4011821,NaN,NaN,0,0.960974948367038,1.17190069999992
SX103,prp,0,2,5,letter_16,false_font_04,non-target,letter,left,letter_04,0.5,1.05,0.116,0.616,offset,1100,34,1937.40945163872,NaN,0,cr,1,1938.0255649,1100,1,1938.8814599,1100,0,1937.90942818711,1939.40938205163,1940.4513208,NaN,NaN,0,NaN,0.855894999999919
SX103,prp,0,2,6,letter_16,false_font_04,irrelevant,object,center,object_10,0.5,0.766666666666667,0,0,onset,1100,200,1940.45936812259,NaN,0,cr,1,1940.4603382,1100,1,1941.1089416,1100,0,1940.95934729679,1942.45932364195,1943.2178494,NaN,NaN,0,NaN,0.648603399999956
SX103,prp,0,2,7,letter_16,false_font_04,irrelevant,object,center,object_16,1.5,0.9,0,1.5,offset,1100,206,1943.22596280647,NaN,0,cr,1,1944.7271162,1100,1,1945.2548153,1100,0,1944.72592685163,1945.22590859679,1946.1176636,NaN,NaN,0,NaN,0.527699100000063
SX103,prp,0,2,8,letter_16,false_font_04,non-target,letter,right,letter_12,1.5,1.71666666666667,0.466,1.966,offset,1100,62,1946.12589026131,NaN,0,cr,1,1948.0921654,1100,1,1948.8574735,1100,0,1947.62586648711,1948.12585234195,1949.8343467,NaN,NaN,0,NaN,0.765308099999856
SX103,prp,0,2,9,letter_16,false_font_04,non-target,letter,right,letter_01,0.5,1.76666666666667,0,0,onset,1100,51,1949.84246984195,NaN,0,cr,1,1949.8435193,1100,1,1950.4888905,1100,0,1950.34246838711,1951.84242389679,1953.6009519,NaN,NaN,0,NaN,0.6453712
SX103,prp,0,2,10,letter_16,false_font_04,non-target,letter,center,letter_13,1,1.38333333333333,0.116,0.116,onset,1100,23,1953.60905017743,NaN,0,cr,1,1953.7254351,1100,1,1954.3136259,1100,0,1954.6090249484,1955.60904688388,1956.9840773,NaN,NaN,0,NaN,0.58819080000012
SX103,prp,0,2,11,letter_16,false_font_04,target,letter,left,letter_16,1,1.01666666666667,0.466,1.466,offset,1100,46,1956.99229917743,1957.9937856,1,hit,1,1958.4583555,1100,1,1958.97996,1,1100,1957.99228159356,1958.99226169356,1960.000651,NaN,NaN,0,1.00148642256522,0.521604499999967
SX103,prp,0,2,12,letter_16,false_font_04,irrelevant,face,center,face_07,0.5,1.7,0.466,0.466,onset,1000,77,1960.00889895163,NaN,0,cr,2,1960.4750378,1000,1,1961.1908352,1000,0,1960.50888563227,1962.00884419679,1963.7006693,NaN,NaN,0,NaN,0.715797399999929
SX103,prp,0,2,13,letter_16,false_font_04,non-target,letter,right,letter_15,1.5,0.833333333333333,0.466,0.466,onset,1000,65,1963.70880098711,NaN,0,cr,2,1964.1749462,1000,1,1964.7036585,1000,0,1965.20877368711,1965.70875869679,1966.5338921,NaN,NaN,0,NaN,0.528712300000052
SX103,prp,0,2,14,letter_16,false_font_04,irrelevant,object,left,object_04,1,1.2,0,1,offset,1100,214,1966.54207614195,NaN,0,cr,1,1967.5431526,1100,1,1968.0705696,1100,0,1967.54204385163,1968.54201987743,1969.7338109,NaN,NaN,0,NaN,0.527417000000014
SX103,prp,0,2,15,letter_16,false_font_04,irrelevant,face,right,face_20,0.5,1.1,0.466,0.966,offset,1000,130,1969.74204205163,NaN,0,cr,2,1970.7081972,1000,1,1971.2874092,1000,0,1970.24197824195,1971.74194155163,1972.8337454,NaN,NaN,0,NaN,0.57921199999987
SX103,prp,0,2,16,letter_16,false_font_04,non-target,false_font,center,false_font_19,1.5,1.41666666666667,0.116,0.116,onset,1000,149,1972.84191380647,NaN,0,cr,2,1972.958054,1000,1,1973.4113622,1000,0,1974.34188610647,1974.84187639679,1976.2502704,NaN,NaN,0,NaN,0.453308200000038
SX103,prp,0,2,17,letter_16,false_font_04,non-target,false_font,center,false_font_03,1,0.75,0.232,0.232,onset,1100,133,1976.25850813227,NaN,0,cr,1,1976.4905608,0,NaN,NaN,0,0,1977.2584892226,1978.25844926131,1979.0002827,NaN,NaN,0,NaN,NaN
SX103,prp,0,2,18,letter_16,false_font_04,irrelevant,face,right,face_11,1,1,0.116,1.116,offset,1000,121,1979.00843213227,NaN,0,cr,2,1980.1245914,1000,1,1980.5584336,1000,0,1980.00841420324,1981.00840031292,1982.0001336,NaN,NaN,0,NaN,0.433842199999845
SX103,prp,0,2,19,letter_16,false_font_04,non-target,letter,center,letter_08,0.5,0.85,0.232,0.732,offset,1100,18,1982.00837171292,NaN,0,cr,1,1982.7406752,1100,1,1983.2234079,1100,0,1982.50834929679,1984.00832295163,1984.8500669,NaN,NaN,0,NaN,0.482732700000042
SX103,prp,0,2,20,letter_16,false_font_04,irrelevant,object,center,object_08,1,1.3,0.232,1.232,offset,1000,198,1984.85829245163,NaN,0,cr,2,1986.0904342,1000,1,1986.7817462,1000,0,1985.85828111292,1986.85824725163,1988.1500982,NaN,NaN,0,NaN,0.691312000000153
SX103,prp,0,2,21,letter_16,false_font_04,irrelevant,object,right,object_10,1,1.33333333333333,0.232,1.232,offset,1000,240,1988.15821094195,NaN,0,cr,2,1989.3904019,1000,1,1990.3786268,1000,0,1989.15819429679,1990.15817322259,1991.4832361,NaN,NaN,0,NaN,0.988224899999977
SX103,prp,0,2,22,letter_16,false_font_04,irrelevant,face,center,face_05,0.5,1.71666666666667,0.466,0.466,onset,1100,75,1991.49146025163,NaN,0,cr,1,1991.9575515,1100,1,1992.4983958,1100,0,1991.99145308067,1993.49142654195,1995.199848,NaN,NaN,0,NaN,0.540844300000117
SX103,prp,0,2,23,letter_16,false_font_04,irrelevant,object,left,object_19,0.5,1.98333333333333,0.466,0.466,onset,1000,229,1995.20804544195,NaN,0,cr,2,1995.6743011,1000,1,1996.2469497,1000,0,1995.70803914195,1997.20800165163,1999.183187,NaN,NaN,0,NaN,0.572648599999866
SX103,prp,0,2,24,letter_16,false_font_04,non-target,letter,center,letter_02,0.5,1.21666666666667,0.116,0.116,onset,1000,12,1999.19127854195,NaN,0,cr,2,1999.3074456,1000,1,1999.8854098,1000,0,1999.69126584195,2001.19122888711,2002.39984,NaN,NaN,0,NaN,0.577964199999997
SX103,prp,0,2,25,letter_16,false_font_04,non-target,letter,left,letter_13,1.5,1.28333333333333,0.116,1.616,offset,1100,43,2002.40787153227,NaN,0,cr,1,2004.0239534,1100,1,2004.7009632,1100,0,2003.90784134195,2004.40782474195,2005.683044,NaN,NaN,0,NaN,0.677009799999951
SX103,prp,0,2,26,letter_16,false_font_04,irrelevant,face,center,face_07,0.5,1.01666666666667,0.232,0.232,onset,1000,77,2005.69112790647,NaN,0,cr,2,2005.9233527,1000,1,2006.4358734,1000,0,2006.19111485163,2007.6910814484,2008.6995383,NaN,NaN,0,NaN,0.512520700000096
SX103,prp,0,2,27,letter_16,false_font_04,non-target,false_font,center,false_font_19,1,0.966666666666667,0.116,0.116,onset,1000,149,2008.70772079356,NaN,0,cr,2,2008.8241023,1000,1,2009.3748175,1000,0,2009.70769969679,2010.7076735484,2011.6662834,NaN,NaN,0,NaN,0.550715200000013
SX103,prp,0,2,28,letter_16,false_font_04,irrelevant,object,center,object_04,0.5,0.85,0.232,0.232,onset,1000,194,2011.67431485163,NaN,0,cr,2,2011.9065536,1000,1,2012.3028678,1000,0,2012.17430019679,2013.67426869679,2014.5160444,NaN,NaN,0,NaN,0.396314200000006
SX103,prp,0,2,29,letter_16,false_font_04,non-target,false_font,center,false_font_14,1,1.75,0.466,1.466,offset,1000,144,2014.52427618711,NaN,0,cr,2,2015.9903196,1000,1,2016.5764288,1000,0,2015.52423147743,2016.52419429679,2018.2661614,NaN,NaN,0,NaN,0.58610920000001
SX103,prp,0,2,30,letter_16,false_font_04,irrelevant,face,center,face_07,1,0.983333333333333,0,1,offset,1100,77,2018.27415174195,NaN,0,cr,1,2019.275227,1100,1,2019.8366778,1100,0,2019.27414216776,2020.27411213227,2021.2492461,NaN,NaN,0,NaN,0.561450799999875
SX103,prp,0,2,31,letter_16,false_font_04,non-target,letter,left,letter_20,0.5,0.95,0.232,0.232,onset,1000,50,2021.25741488711,NaN,0,cr,2,2021.4895857,1000,1,2022.0507829,1000,0,2021.75740025163,2023.25737254195,2024.1992021,NaN,NaN,0,NaN,0.561197200000151
SX103,prp,0,2,32,letter_16,false_font_04,non-target,false_font,right,false_font_10,0.5,1.25,0.232,0.732,offset,1000,180,2024.20737896131,NaN,0,cr,2,2024.9395329,1000,1,2025.4636469,1000,0,2024.70734049679,2026.20729989679,2027.4492378,NaN,NaN,0,NaN,0.524114000000054
SX103,prp,0,2,33,letter_16,false_font_04,non-target,letter,right,letter_13,0.5,1.55,0.466,0.466,onset,1000,63,2027.45726525163,NaN,0,cr,2,2027.9233848,1000,1,2028.4669181,1000,0,2027.95734548711,2029.45722474195,2030.9989714,NaN,NaN,0,NaN,0.543533300000036
SX103,prp,0,2,34,letter_16,false_font_04,non-target,false_font,left,false_font_01,0.5,1.16666666666667,0.232,0.732,offset,1000,151,2031.00718349679,NaN,0,cr,2,2031.7394919,1000,1,2032.2898257,1000,0,2031.50718011292,2033.00713919679,2034.1656759,NaN,NaN,0,NaN,0.550333799999862
SX103,prp,0,3,1,face_18,object_12,irrelevant,letter,right,letter_18,1.5,0.983333333333333,0.466,1.966,offset,1000,68,2041.32361122907,NaN,0,cr,2,2043.2898531,0,NaN,NaN,0,0,2042.82356379679,2043.32355664195,2044.2987518,NaN,NaN,2039.34032539356,NaN,NaN
SX103,prp,0,3,2,face_18,object_12,non-target,object,center,object_18,0.5,1.9,0.232,0.732,offset,1100,208,2044.3068724226,NaN,0,cr,1,2045.0391148,0,NaN,NaN,0,0,2044.80684840647,2046.30681499679,2048.1987354,NaN,NaN,0,NaN,NaN
SX103,prp,0,3,3,face_18,object_12,irrelevant,letter,center,letter_13,0.5,1.88333333333333,0.232,0.232,onset,1100,23,2048.20677428711,NaN,0,cr,1,2048.4391122,1100,1,2049.3926425,1100,0,2048.7067661226,2050.20673338711,2052.0819082,NaN,NaN,0,NaN,0.953530299999784
SX103,prp,0,3,4,face_18,object_12,irrelevant,letter,left,letter_14,0.5,1.31666666666667,0.232,0.232,onset,1100,44,2052.09001265163,NaN,0,cr,1,2052.3221515,1100,1,2053.3018116,1100,0,2052.59001004195,2054.08996119679,2055.3984112,NaN,NaN,0,NaN,0.979660099999819
SX103,prp,0,3,5,face_18,object_12,irrelevant,letter,right,letter_10,1,0.783333333333333,0.116,0.116,onset,1000,60,2055.40659719679,NaN,0,cr,2,2055.5226508,1000,1,2056.1109512,1000,0,2056.4065820484,2057.40656185808,2058.1817741,NaN,NaN,0,NaN,0.588300399999753
SX103,prp,0,3,6,face_18,object_12,non-target,face,right,face_17,0.5,0.8,0,0,onset,1000,127,2058.18986695163,NaN,0,cr,2,2058.190935,1000,1,2059.261337,1000,0,2058.68988566131,2060.18982075163,2060.9816525,NaN,NaN,0,NaN,1.07040199999983
SX103,prp,0,3,7,face_18,object_12,non-target,face,center,face_11,0.5,1.83333333333333,0.116,0.116,onset,1100,81,2060.98979835163,NaN,0,cr,1,2061.105907,1100,1,2061.6775919,1100,0,2061.48979067099,2062.98975859679,2064.8148702,NaN,NaN,0,NaN,0.571684900000037
SX103,prp,0,3,8,face_18,object_12,irrelevant,false_font,center,false_font_07,1,1.91666666666667,0,0,onset,1000,137,2064.82305163227,NaN,0,cr,2,2064.8240438,1000,1,2065.3575876,1000,0,2065.82302943872,2066.8229971484,2068.7315054,NaN,NaN,0,NaN,0.533543800000189
SX103,prp,0,3,9,face_18,object_12,irrelevant,false_font,left,false_font_10,1.5,1.26666666666667,0.116,0.116,onset,1100,160,2068.73961729679,NaN,0,cr,1,2068.8558273,1100,1,2069.2575684,1100,0,2070.23958587743,2070.73956489679,2071.9981464,NaN,NaN,0,NaN,0.401741099999981
SX103,prp,0,3,10,face_18,object_12,non-target,object,right,object_11,1,0.716666666666667,0.466,0.466,onset,1100,241,2072.00620059679,NaN,0,cr,1,2072.4723269,1100,1,2072.9553445,1100,0,2073.00617837743,2074.00616454195,2074.714569,NaN,NaN,0,NaN,0.483017600000039
SX103,prp,0,3,11,face_18,object_12,non-target,object,center,object_05,1,1.13333333333333,0.116,0.116,onset,1000,195,2074.72279969679,NaN,0,cr,2,2074.8390528,1000,1,2075.463583,1000,0,2075.72277674195,2076.72277303872,2077.8480232,NaN,NaN,0,NaN,0.624530200000208
SX103,prp,0,3,12,face_18,object_12,target,face,left,face_18,1.5,1.18333333333333,0,1.5,offset,1100,108,2077.85607214195,2078.491363,1,hit,1,2079.3571277,1100,1,2079.9258009,1,1100,2079.35603044195,2079.85601365163,2081.0310882,NaN,NaN,0,0.635290858046119,0.568673199999921
SX103,prp,0,3,13,face_18,object_12,irrelevant,letter,center,letter_02,0.5,0.783333333333333,0.466,0.466,onset,1000,12,2081.03932088711,NaN,0,cr,2,2081.5055631,1000,1,2082.9628604,1000,0,2081.53931679679,2083.03928113227,2083.8145119,NaN,NaN,0,NaN,1.45729729999994
SX103,prp,0,3,14,face_18,object_12,non-target,face,left,face_13,0.5,1.11666666666667,0.232,0.232,onset,1100,103,2083.82258639679,NaN,0,cr,1,2084.0547706,1100,1,2084.4873012,1100,0,2084.32257089679,2085.82253753227,2086.9309979,NaN,NaN,0,NaN,0.432530599999609
SX103,prp,0,3,15,face_18,object_12,target,object,right,object_12,1,0.733333333333333,0.232,1.232,offset,1100,242,2086.93918208711,NaN,0,miss,1,2088.1713745,1100,1,2088.6638702,1100,0,2087.93916808388,2088.9391391484,2089.6643106,NaN,NaN,0,NaN,0.492495699999836
SX103,prp,0,3,16,face_18,object_12,irrelevant,false_font,center,false_font_12,1.5,1.4,0.116,1.616,offset,1000,142,2089.67244595163,NaN,0,cr,2,2091.2886908,1000,1,2091.8416759,1000,0,2091.17240714195,2091.67240298711,2093.0642575,NaN,NaN,0,NaN,0.552985100000114
SX103,prp,0,3,17,face_18,object_12,non-target,object,center,object_15,1.5,0.833333333333333,0.466,1.966,offset,1100,205,2093.07235770647,NaN,0,cr,1,2095.0385335,1100,1,2095.6252789,1100,0,2094.57233708711,2095.07232209679,2095.8975806,NaN,NaN,0,NaN,0.586745399999927
SX103,prp,0,3,18,face_18,object_12,irrelevant,false_font,center,false_font_02,1,0.9,0.116,1.116,offset,1100,132,2095.90563344195,NaN,0,cr,1,2097.0218582,1100,1,2097.5283104,1100,0,2096.90560364195,2097.90557814195,2098.7973597,NaN,NaN,0,NaN,0.506452199999785
SX103,prp,0,3,19,face_18,object_12,target,object,left,object_12,1,0.866666666666667,0,0,onset,1000,222,2098.80555769679,NaN,0,miss,2,2098.8065309,1000,1,2099.2872417,1000,0,2099.80553364195,2100.80552029356,2101.6639625,NaN,NaN,0,NaN,0.480710799999997
SX103,prp,0,3,20,face_18,object_12,non-target,object,center,object_09,0.5,1.23333333333333,0.116,0.116,onset,1000,199,2101.67215874195,NaN,0,cr,2,2101.7883879,1000,1,2102.197671,1000,0,2102.17213934195,2103.67210373227,2104.8972013,NaN,NaN,0,NaN,0.409283099999811
SX103,prp,0,3,21,face_18,object_12,irrelevant,false_font,right,false_font_17,1.5,0.75,0.116,1.616,offset,1100,187,2104.90540465163,NaN,0,cr,1,2106.5216326,1100,1,2107.0293364,1100,0,2106.40537903227,2106.90536683227,2107.6472271,NaN,NaN,0,NaN,0.507703799999945
SX103,prp,0,3,22,face_18,object_12,irrelevant,letter,center,letter_06,1.5,0.966666666666667,0.466,1.966,offset,1100,16,2107.65534765163,NaN,0,cr,1,2109.6215865,1100,1,2110.3173214,1100,0,2109.15530638711,2109.65529519679,2110.6137628,NaN,NaN,0,NaN,0.695734899999934
SX103,prp,0,3,23,face_18,object_12,irrelevant,false_font,center,false_font_15,0.5,1.78333333333333,0.116,0.116,onset,1100,145,2110.6219519226,NaN,0,cr,1,2110.7380157,1100,1,2111.2943203,1100,0,2111.12192165163,2112.62189753227,2114.3971863,NaN,NaN,0,NaN,0.556304600000203
SX103,prp,0,3,24,face_18,object_12,non-target,object,center,object_14,0.5,1.9,0.232,0.732,offset,1000,204,2114.40517889679,NaN,0,cr,2,2115.1372959,1000,1,2116.2842608,1000,0,2114.90517808711,2116.40512876131,2118.2971585,NaN,NaN,0,NaN,1.14696490000006
SX103,prp,0,3,25,face_18,object_12,irrelevant,letter,center,letter_12,1.5,0.783333333333333,0.116,1.616,offset,1000,22,2118.30508828711,NaN,0,cr,2,2119.9212531,1000,1,2120.4387935,1000,0,2119.80505447743,2120.30503639679,2121.0801819,NaN,NaN,0,NaN,0.517540400000144
SX103,prp,0,3,26,face_18,object_12,non-target,object,left,object_07,0.5,1.43333333333333,0.232,0.732,offset,1000,217,2121.08834844195,NaN,0,cr,2,2121.8205356,1000,1,2122.202332,1000,0,2121.58834944195,2123.08831348711,2124.5135492,NaN,NaN,0,NaN,0.381796399999985
SX103,prp,0,3,27,face_18,object_12,non-target,object,right,object_08,1,1.96666666666667,0,1,offset,1100,238,2124.52160015163,NaN,0,cr,1,2125.5225872,1100,1,2126.0797901,1100,0,2125.5215848226,2126.52155878711,2128.4800546,NaN,NaN,0,NaN,0.557202899999993
SX103,prp,0,3,28,face_18,object_12,irrelevant,false_font,right,false_font_13,1.5,1.05,0.232,0.232,onset,1100,183,2128.48817564195,NaN,0,cr,1,2128.7203525,1100,1,2129.2532601,1100,0,2129.98814114195,2130.48812644195,2131.5300687,NaN,NaN,0,NaN,0.532907599999817
SX103,prp,0,3,29,face_18,object_12,non-target,face,right,face_12,1.5,1.35,0.232,0.232,onset,1100,122,2131.53810949356,NaN,0,cr,1,2131.770235,1100,1,2132.4502706,1100,0,2133.03806691615,2133.53805618711,2134.8798882,NaN,NaN,0,NaN,0.680035599999883
SX103,prp,0,3,30,face_18,object_12,target,face,right,face_18,1.5,0.866666666666667,0.466,1.966,offset,1100,128,2134.88802798711,2135.9002602,1,hit,1,2136.8540687,1100,1,2137.4614347,1,1100,2136.38798174195,2136.88797898711,2137.7463672,NaN,NaN,0,1.01223221288637,0.607366000000184
SX103,prp,0,3,31,face_18,object_12,non-target,face,center,face_11,1.5,1.06666666666667,0.466,0.466,onset,1000,81,2137.75462159679,NaN,0,cr,2,2138.2208029,1000,1,2138.7842317,1000,0,2139.25459054195,2139.75456989679,2140.8129731,NaN,NaN,0,NaN,0.563428800000111
SX103,prp,0,3,32,face_18,object_12,non-target,face,center,face_13,1,1.7,0.232,1.232,offset,1100,83,2140.82121986131,NaN,0,cr,1,2142.0534859,1100,1,2142.5432516,1100,0,2141.82118724195,2142.82117647743,2144.5130485,NaN,NaN,0,NaN,0.489765700000135
SX103,prp,0,3,33,face_18,object_12,non-target,object,center,object_10,1.5,1.93333333333333,0.232,0.232,onset,1100,200,2144.52113259679,NaN,0,cr,1,2144.7533954,1100,1,2145.206672,1100,0,2146.02109139679,2146.52108926776,2148.4461882,NaN,NaN,0,NaN,0.453276599999754
SX103,prp,0,3,34,face_18,object_12,non-target,object,center,object_14,1,0.866666666666667,0.232,0.232,onset,1100,204,2148.45437964195,NaN,0,cr,1,2148.6865445,1100,1,2149.0995889,1100,0,2149.45434110647,2150.45431718711,2151.3128851,NaN,NaN,0,NaN,0.413044400000217
SX103,prp,0,3,35,face_18,object_12,target,face,center,face_18,1.5,1.45,0.466,1.966,offset,1000,88,2151.32096959679,2152.3577076,1,hit,2,2153.2871741,1000,1,2153.8487585,1,1000,2152.82092465163,2153.32091995163,2154.7626774,NaN,NaN,0,1.03673800320666,0.561584399999902
SX103,prp,0,3,36,face_18,object_12,irrelevant,letter,center,letter_09,1,1.5,0.116,0.116,onset,1100,19,2154.77087535163,NaN,0,cr,1,2154.8871135,1100,1,2155.3352731,1100,0,2155.77085909679,2156.77087923227,2158.2627736,NaN,NaN,0,NaN,0.448159600000054
SX103,prp,0,3,37,face_18,object_12,irrelevant,letter,center,letter_14,1,1.06666666666667,0.116,0.116,onset,1100,24,2158.27079245163,NaN,0,cr,1,2158.3869651,1100,1,2158.8252448,1100,0,2159.27077924195,2160.27076879356,2161.3292249,NaN,NaN,0,NaN,0.438279699999839
SX103,prp,0,4,1,face_04,object_16,non-target,face,center,face_15,1.5,1.21666666666667,0,0,onset,1000,85,2175.97042332583,NaN,0,cr,2,2175.9724808,1000,1,2177.6272236,1000,0,2177.47034664195,2177.97032579679,2179.1789508,NaN,NaN,2166.92059547743,NaN,1.65474279999989
SX103,prp,0,4,2,face_04,object_16,irrelevant,letter,center,letter_14,0.5,0.916666666666667,0,0,onset,1100,24,2179.18697484195,NaN,0,cr,1,2179.1880416,1100,1,2179.9982363,1100,0,2179.68696174195,2181.18691549679,2182.0955382,NaN,NaN,0,NaN,0.810194700000011
SX103,prp,0,4,3,face_04,object_16,non-target,face,left,face_01,1.5,0.916666666666667,0.232,1.732,offset,1000,91,2182.10356768711,NaN,0,cr,2,2183.835726,1000,1,2184.4805392,1000,0,2183.60353256131,2184.10351258711,2185.0120622,NaN,NaN,0,NaN,0.644813200000044
SX103,prp,0,4,4,face_04,object_16,non-target,object,left,object_10,1,1.98333333333333,0,0,onset,1100,220,2185.02016804195,NaN,0,cr,1,2185.0211467,1100,1,2185.6167573,1100,0,2186.0201425226,2187.02011064195,2188.9952517,NaN,NaN,0,NaN,0.595610599999873
SX103,prp,0,4,5,face_04,object_16,irrelevant,false_font,center,false_font_10,1.5,0.766666666666667,0.232,0.232,onset,1000,140,2189.00340093227,NaN,0,cr,2,2189.2355829,1000,1,2189.939749,1000,0,2190.50337316775,2191.00338380647,2191.7619115,NaN,NaN,0,NaN,0.704166100000293
SX103,prp,0,4,6,face_04,object_16,irrelevant,false_font,right,false_font_09,0.5,1.81666666666667,0.466,0.966,offset,1000,179,2191.76998897099,NaN,0,cr,2,2192.7361211,1000,1,2193.3462582,1000,0,2192.26998604195,2193.76994514195,2195.5783618,NaN,NaN,0,NaN,0.610137099999974
SX103,prp,0,4,7,face_04,object_16,irrelevant,false_font,center,false_font_10,1,0.75,0,1,offset,1100,140,2195.58656777099,NaN,0,cr,1,2196.5877146,1100,1,2197.0366395,1100,0,2196.58654485163,2197.5865228226,2198.3282824,NaN,NaN,0,NaN,0.448924900000293
SX103,prp,0,4,8,face_04,object_16,irrelevant,letter,left,letter_07,1,0.883333333333333,0.466,1.466,offset,1100,37,2198.33651109679,NaN,0,cr,1,2199.8026616,1100,1,2200.7892471,1100,0,2199.33649280324,2200.33648113872,2201.2116576,NaN,NaN,0,NaN,0.986585499999819
SX103,prp,0,4,9,face_04,object_16,irrelevant,letter,right,letter_05,1,0.766666666666667,0.116,0.116,onset,1100,55,2201.21977400647,NaN,0,cr,1,2201.3359179,1100,1,2201.8156847,1100,0,2202.21975440324,2203.2197323484,2203.9782696,NaN,NaN,0,NaN,0.479766800000107
SX103,prp,0,4,10,face_04,object_16,irrelevant,false_font,center,false_font_15,1,1.5,0.466,1.466,offset,1100,145,2203.98637928711,NaN,0,cr,1,2205.4525728,1100,1,2206.3014821,1100,0,2204.98635418711,2205.98632801292,2207.478167,NaN,NaN,0,NaN,0.848909300000287
SX103,prp,0,4,11,face_04,object_16,target,face,center,face_04,1.5,1.05,0.232,0.232,onset,1000,74,2207.48630169679,2208.2652375,1,hit,2,2207.7185305,1000,1,2209.0492181,1,1000,2208.98632588711,2209.48624684195,2210.5279804,NaN,NaN,0,0.778935803206423,1.33068760000015
SX103,prp,0,4,12,face_04,object_16,non-target,face,center,face_07,0.5,1.5,0,0,onset,1100,77,2210.5362203484,NaN,0,cr,1,2210.537617,1100,1,2211.4067058,1100,0,2211.03620904195,2212.53617278711,2214.0280977,NaN,NaN,0,NaN,0.8690888000001
SX103,prp,0,4,13,face_04,object_16,non-target,object,center,object_13,1,1.81666666666667,0.116,1.116,offset,1000,203,2214.03613525163,NaN,0,cr,2,2215.1523863,1000,1,2215.7246541,1000,0,2215.0361081226,2216.03609067743,2217.8446695,NaN,NaN,0,NaN,0.572267799999736
SX103,prp,0,4,14,face_04,object_16,non-target,face,left,face_15,1.5,0.7,0.116,0.116,onset,1100,105,2217.85270095163,NaN,0,cr,1,2217.9690367,1100,1,2218.7994919,1100,0,2219.35267384195,2219.85265549679,2220.544388,NaN,NaN,0,NaN,0.83045519999996
SX103,prp,0,4,15,face_04,object_16,target,object,center,object_16,0.5,0.816666666666667,0.116,0.116,onset,1100,206,2220.55263338711,2221.2491873,1,hit,1,2220.668886,1100,1,2222.0557285,1,1100,2221.05263158711,2222.55258689679,2223.3609863,NaN,NaN,0,0.696553912885975,1.38684250000006
SX103,prp,0,4,16,face_04,object_16,irrelevant,false_font,right,false_font_11,1.5,1.75,0,1.5,offset,1100,181,2223.3692420226,NaN,0,cr,1,2224.8703079,1100,1,2225.6632158,1100,0,2224.86920887743,2225.36919199679,2227.1110843,NaN,NaN,0,NaN,0.792907900000046
SX103,prp,0,4,17,face_04,object_16,irrelevant,false_font,center,false_font_13,0.5,0.716666666666667,0.466,0.966,offset,1000,143,2227.11915273227,NaN,0,cr,2,2228.0853604,1000,1,2228.6724319,1000,0,2227.61913719679,2229.11910559679,2229.8276479,NaN,NaN,0,NaN,0.587071500000093
SX103,prp,0,4,18,face_04,object_16,non-target,object,right,object_03,1,1.93333333333333,0.116,1.116,offset,1100,233,2229.83574847743,NaN,0,cr,1,2230.9519738,1100,1,2231.4732173,1100,0,2230.83572299679,2231.83569805163,2233.760947,NaN,NaN,0,NaN,0.52124350000031
SX103,prp,0,4,19,face_04,object_16,non-target,object,right,object_14,1,1.81666666666667,0.116,1.116,offset,1000,244,2233.76898964195,NaN,0,cr,2,2234.8852247,1000,1,2235.4215451,1000,0,2234.76896206776,2235.76893855163,2237.5775263,NaN,NaN,0,NaN,0.536320400000022
SX103,prp,0,4,20,face_04,object_16,irrelevant,false_font,right,false_font_03,1,1.4,0.116,0.116,onset,1100,173,2237.58556458711,NaN,0,cr,1,2237.7017823,1100,1,2238.2675307,1100,0,2238.5855498742,2239.58552179356,2240.977431,NaN,NaN,0,NaN,0.565748399999848
SX103,prp,0,4,21,face_04,object_16,irrelevant,false_font,left,false_font_01,0.5,1.26666666666667,0.116,0.116,onset,1100,151,2240.98547896776,NaN,0,cr,1,2241.1016044,1100,1,2241.6111612,1100,0,2241.4854725226,2242.98543118711,2244.2439861,NaN,NaN,0,NaN,0.509556800000155
SX103,prp,0,4,22,face_04,object_16,non-target,object,center,object_05,1.5,1.96666666666667,0.466,1.966,offset,1100,195,2244.25206979679,NaN,0,cr,1,2246.2183061,1100,1,2246.7566087,1100,0,2245.75203063227,2246.25202419679,2248.2105009,NaN,NaN,0,NaN,0.538302599999952
SX103,prp,0,4,23,face_04,object_16,non-target,face,left,face_01,0.5,0.75,0.466,0.466,onset,1100,91,2248.21863624195,NaN,0,cr,1,2248.6847059,1100,1,2249.6544957,1100,0,2248.71863434195,2250.21859338711,2250.9605168,NaN,NaN,0,NaN,0.969789799999944
SX103,prp,0,4,24,face_04,object_16,non-target,face,left,face_13,1,0.983333333333333,0.466,0.466,onset,1000,103,2250.96857037743,NaN,0,cr,2,2251.4347785,1000,1,2252.1101288,1000,0,2251.96855508388,2252.96853079356,2253.9436096,NaN,NaN,0,NaN,0.675350299999991
SX103,prp,0,4,25,face_04,object_16,non-target,object,center,object_01,0.5,0.716666666666667,0.232,0.232,onset,1100,191,2253.9518393226,NaN,0,cr,1,2254.1839164,1100,1,2254.9211982,1100,0,2254.45182475163,2255.95178105163,2256.6602805,NaN,NaN,0,NaN,0.737281800000346
SX103,prp,0,4,26,face_04,object_16,irrelevant,false_font,center,false_font_11,1.5,0.75,0,1.5,offset,1000,141,2256.6684416226,NaN,0,cr,2,2258.1695871,1000,1,2258.7507476,1000,0,2258.16839769679,2258.66838608711,2259.4101437,NaN,NaN,0,NaN,0.581160499999896
SX103,prp,0,4,27,face_04,object_16,non-target,face,right,face_03,0.5,0.916666666666667,0,0.5,offset,1000,113,2259.41837401615,NaN,0,cr,2,2259.9194845,1000,1,2260.4251643,1000,0,2259.91835380647,2261.41832049679,2262.3268665,NaN,NaN,0,NaN,0.505679799999598
SX103,prp,0,4,28,face_04,object_16,irrelevant,letter,left,letter_19,0.5,1.95,0.116,0.616,offset,1000,49,2262.33496094195,NaN,0,cr,2,2262.9511764,1000,1,2263.4665487,1000,0,2262.83495125163,2264.33492498711,2266.2767851,NaN,NaN,0,NaN,0.515372300000308
SX103,prp,0,4,29,face_04,object_16,non-target,object,center,object_09,1,0.916666666666667,0.466,0.466,onset,1000,199,2266.28487388711,NaN,0,cr,2,2266.751133,1000,1,2267.2274972,1000,0,2267.28485524195,2268.28482445163,2269.1932516,NaN,NaN,0,NaN,0.476364199999807
SX103,prp,0,4,30,face_04,object_16,irrelevant,letter,right,letter_19,1.5,1.43333333333333,0,1.5,offset,1100,69,2269.20146518711,NaN,0,cr,1,2270.7025386,1000,0,2271.7224712,1000,0,2270.70143309679,2271.20142640647,2272.6266566,NaN,NaN,0,NaN,1.01993260000017
SX103,prp,0,4,31,face_04,object_16,non-target,face,left,face_16,1,1.23333333333333,0.232,1.232,offset,1100,106,2272.63471509679,NaN,0,cr,1,2273.8667685,1100,1,2275.2642867,1100,0,2273.63469793227,2274.63466890647,2275.8599206,NaN,NaN,0,NaN,1.39751819999992
SX103,prp,0,4,32,face_04,object_16,irrelevant,letter,center,letter_04,1,1.06666666666667,0,1,offset,1000,14,2275.86798470647,NaN,0,cr,2,2276.8688682,1000,1,2277.3856185,1000,0,2276.86796519356,2277.86793050324,2278.9265122,NaN,NaN,0,NaN,0.516750299999785
SX103,prp,0,4,33,face_04,object_16,non-target,face,center,face_10,1.5,0.8,0.232,1.732,offset,1000,80,2278.93457188711,NaN,0,cr,2,2280.666648,1000,1,2281.2002555,1000,0,2280.43453188711,2280.93452855163,2281.7263345,NaN,NaN,0,NaN,0.533607500000016
SX103,prp,0,4,34,face_04,object_16,irrelevant,letter,center,letter_05,0.5,1.35,0.116,0.116,onset,1100,15,2281.73449996776,NaN,0,cr,1,2281.8506981,1100,1,2282.3377208,1100,0,2282.23449163227,2283.73446084195,2285.0761942,NaN,NaN,0,NaN,0.487022700000125
SX103,prp,0,4,35,face_04,object_16,target,face,center,face_04,1.5,0.933333333333333,0,1.5,offset,1100,74,2285.08441684195,2285.7196444,1,hit,1,2286.5854782,1100,1,2287.4694818,1,1100,2286.58438444195,2287.08438243227,2288.009427,NaN,NaN,0,0.635227558046154,0.884003599999687
SX103,prp,0,5,1,face_19,object_16,target,object,center,object_16,1,0.833333333333333,0,0,onset,1000,206,2371.41569012907,2372.8683112,1,hit,2,2371.4179828,1100,0,2373.9010646,1,1100,2372.41566968711,2373.41563794195,2374.2407028,NaN,NaN,2364.31585808711,1.45262107093231,2.48308180000004
SX103,prp,0,5,2,face_19,object_16,target,object,center,object_16,0.5,1.73333333333333,0.466,0.966,offset,1000,206,2374.24894497099,2375.7865775,1,hit,2,2375.2150522,1100,0,2376.2157151,1,1100,2374.74894034195,2376.24891343227,2377.9739563,NaN,NaN,0,1.53763252900853,1.00066289999995
SX103,prp,0,5,3,face_19,object_16,irrelevant,letter,right,letter_17,0.5,1.4,0.116,0.116,onset,1100,67,2377.98219129679,NaN,0,cr,1,2378.0982972,1100,1,2379.3183468,1100,0,2378.48218658711,2379.98215270647,2381.3740867,NaN,NaN,0,NaN,1.22004960000004
SX103,prp,0,5,4,face_19,object_16,irrelevant,false_font,right,false_font_02,1.5,1.81666666666667,0.116,0.116,onset,1100,172,2381.38211275163,NaN,0,cr,1,2381.4981622,1100,1,2382.0733906,1100,0,2382.88208345163,2383.38206985163,2385.1906442,NaN,NaN,0,NaN,0.575228400000015
SX103,prp,0,5,5,face_19,object_16,irrelevant,letter,left,letter_10,1.5,0.8,0.466,1.966,offset,1100,40,2385.1986985226,NaN,0,cr,1,2387.1648146,1100,1,2387.7846296,1100,0,2386.69871974195,2387.19864395163,2387.9904647,NaN,NaN,0,NaN,0.619814999999562
SX103,prp,0,5,6,face_19,object_16,non-target,face,center,face_12,1.5,1.26666666666667,0,1.5,offset,1000,82,2387.99862129679,NaN,0,cr,2,2389.4997353,1000,1,2390.249472,1000,0,2389.49858855163,2389.99856855163,2391.2571432,NaN,NaN,0,NaN,0.749736700000085
SX103,prp,0,5,7,face_19,object_16,non-target,object,center,object_17,0.5,1.1,0.466,0.466,onset,1100,207,2391.26520899679,NaN,0,cr,1,2391.7313953,1100,1,2392.3065474,1100,0,2391.76520514195,2393.26516043227,2394.3570973,NaN,NaN,0,NaN,0.575152100000196
SX103,prp,0,5,8,face_19,object_16,irrelevant,false_font,center,false_font_15,0.5,1.65,0.232,0.232,onset,1000,145,2394.36513389679,NaN,0,cr,2,2394.5972065,1000,1,2395.153271,1000,0,2394.86516434195,2396.36509186131,2398.0068156,NaN,NaN,0,NaN,0.556064500000048
SX103,prp,0,5,9,face_19,object_16,irrelevant,false_font,center,false_font_15,1.5,1.23333333333333,0.116,0.116,onset,1100,145,2398.01504739679,NaN,0,cr,1,2398.1312999,1100,1,2398.6255716,1100,0,2399.51501878711,2400.01500539679,2401.2400871,NaN,NaN,0,NaN,0.494271699999899
SX103,prp,0,5,10,face_19,object_16,irrelevant,false_font,right,false_font_14,1.5,1.31666666666667,0,0,onset,1000,184,2401.24830899679,NaN,0,cr,2,2401.2493337,1000,1,2401.845521,1000,0,2402.74826805163,2403.24826175163,2404.5568654,NaN,NaN,0,NaN,0.596187300000111
SX103,prp,0,5,11,face_19,object_16,non-target,face,center,face_16,1,1.28333333333333,0.466,0.466,onset,1000,86,2404.56493625163,NaN,0,cr,2,2405.0311888,1000,1,2405.8340312,1000,0,2405.5648724484,2406.5648566484,2407.8399973,NaN,NaN,0,NaN,0.802842399999918
SX103,prp,0,5,12,face_19,object_16,non-target,object,left,object_18,0.5,0.85,0.232,0.732,offset,1100,228,2407.84814279679,NaN,0,cr,1,2408.5802294,1100,1,2409.2959863,1100,0,2408.3481412226,2409.84809923227,2410.6901542,NaN,NaN,0,NaN,0.715756900000088
SX103,prp,0,5,13,face_19,object_16,non-target,object,center,object_18,1,1.11666666666667,0,0,onset,1100,208,2410.69807763551,NaN,0,cr,1,2410.6992959,1100,1,2411.222017,1100,0,2411.69806572259,2412.6980908742,2413.8064506,NaN,NaN,0,NaN,0.522721100000126
SX103,prp,0,5,14,face_19,object_16,irrelevant,false_font,right,false_font_05,1.5,0.883333333333333,0.466,0.466,onset,1100,175,2413.81466305163,NaN,0,cr,1,2414.2809301,1100,1,2414.7765818,1100,0,2415.31469138711,2415.81462094195,2416.6896904,NaN,NaN,0,NaN,0.495651699999598
SX103,prp,0,5,15,face_19,object_16,non-target,object,center,object_02,1,1.13333333333333,0,0,onset,1000,192,2416.69793623227,NaN,0,cr,2,2416.698902,1000,1,2417.2406811,1000,0,2417.69791990324,2418.69789627743,2419.823164,NaN,NaN,0,NaN,0.541779099999985
SX103,prp,0,5,16,face_19,object_16,irrelevant,false_font,center,false_font_18,1.5,1.26666666666667,0,0,onset,1100,148,2419.83118614195,NaN,0,cr,1,2419.8321959,1100,1,2420.4310382,1100,0,2421.33115564195,2421.83116559679,2423.0896126,NaN,NaN,0,NaN,0.598842299999887
SX103,prp,0,5,17,face_19,object_16,irrelevant,letter,left,letter_02,0.5,1.43333333333333,0,0,onset,1100,32,2423.09778296131,NaN,0,cr,1,2423.0989152,1100,1,2423.7055937,1100,0,2423.59776454195,2425.09772549679,2426.5227923,NaN,NaN,0,NaN,0.606678499999816
SX103,prp,0,5,18,face_19,object_16,irrelevant,false_font,left,false_font_03,1.5,1.91666666666667,0.232,1.732,offset,1100,153,2426.53103694195,NaN,0,cr,1,2428.2631585,1100,1,2428.9105176,1100,0,2428.03099084195,2428.53098768711,2430.4395166,NaN,NaN,0,NaN,0.647359099999903
SX103,prp,0,5,19,face_19,object_16,non-target,object,center,object_04,1,1.96666666666667,0.466,0.466,onset,1000,194,2430.44760209679,NaN,0,cr,2,2430.9140049,1000,1,2431.4059411,1000,0,2431.44759195808,2432.44756951936,2434.4061108,NaN,NaN,0,NaN,0.491936200000055
SX103,prp,0,5,20,face_19,object_16,non-target,object,left,object_15,1,0.883333333333333,0.232,1.232,offset,1000,225,2434.41416780647,NaN,0,cr,2,2435.6463685,1000,1,2436.1983348,1000,0,2435.41415210324,2436.41412526776,2437.2892529,NaN,NaN,0,NaN,0.551966300000004
SX103,prp,0,5,21,face_19,object_16,irrelevant,letter,right,letter_02,1.5,1.8,0.116,1.616,offset,1000,52,2437.29744233227,NaN,0,cr,2,2438.9136334,1000,1,2439.4334656,1000,0,2438.79739831292,2439.29740104195,2441.0892419,NaN,NaN,0,NaN,0.51983220000011
SX103,prp,0,5,22,face_19,object_16,non-target,face,center,face_11,1.5,1,0.232,1.732,offset,1100,81,2441.09734337743,NaN,0,cr,1,2442.8296327,1100,1,2443.4960001,1100,0,2442.59730768711,2443.09730256131,2444.0892884,NaN,NaN,0,NaN,0.666367400000127
SX103,prp,0,5,23,face_19,object_16,irrelevant,letter,right,letter_13,0.5,1.4,0.466,0.966,offset,1000,63,2444.09726799679,NaN,0,cr,2,2445.0635858,1000,1,2445.6251499,1000,0,2444.59730574195,2446.09722044195,2447.4890485,NaN,NaN,0,NaN,0.561564099999941
SX103,prp,0,5,24,face_19,object_16,target,face,right,face_19,0.5,0.816666666666667,0.116,0.116,onset,1100,129,2447.49720127743,2449.5194756,1,hit,1,2447.6132583,1100,1,2448.5835241,1100,1,2447.99718688711,2449.49714414195,2450.3055438,NaN,NaN,0,2.02227432256541,0.970265800000107
SX103,prp,0,5,25,face_19,object_16,non-target,object,center,object_20,1,1.03333333333333,0,1,offset,1000,210,2450.31379963227,NaN,0,cr,2,2451.3148268,1000,1,2452.1755548,1000,0,2451.31376708711,2452.3137436226,2453.3389936,NaN,NaN,0,NaN,0.860728000000108
SX103,prp,0,5,26,face_19,object_16,irrelevant,false_font,center,false_font_10,1,0.933333333333333,0,1,offset,1000,140,2453.34705210647,NaN,0,cr,2,2454.3479543,1000,1,2454.8833662,1000,0,2454.34703708388,2455.34700410324,2456.2722371,NaN,NaN,0,NaN,0.535411900000327
SX103,prp,0,5,27,face_19,object_16,non-target,face,right,face_15,0.5,1.21666666666667,0.232,0.732,offset,1000,125,2456.28031959679,NaN,0,cr,2,2457.0124135,1000,1,2457.5211904,1000,0,2456.78029774195,2458.28026499679,2459.488674,NaN,NaN,0,NaN,0.508776899999702
SX103,prp,0,5,28,face_19,object_16,irrelevant,false_font,right,false_font_13,0.5,1.2,0.116,0.116,onset,1100,183,2459.49690634195,NaN,0,cr,1,2459.6130234,1100,1,2460.2044345,1100,0,2459.99688804195,2461.49685364195,2462.6886244,NaN,NaN,0,NaN,0.591411099999732
SX103,prp,0,5,29,face_19,object_16,non-target,object,center,object_02,1.5,1.85,0.116,0.116,onset,1100,192,2462.69682399679,NaN,0,cr,1,2462.8130195,1100,1,2463.6723974,1100,0,2464.19679747743,2464.69677918711,2466.5386306,NaN,NaN,0,NaN,0.859377900000254
SX103,prp,0,5,30,face_19,object_16,non-target,object,right,object_10,0.5,1.03333333333333,0.116,0.616,offset,1100,240,2466.54673534195,NaN,0,cr,1,2467.1628784,1000,0,2468.9362688,1000,0,2467.04672877743,2468.54668563227,2469.5718719,NaN,NaN,0,NaN,1.77339040000015
SX103,prp,0,5,31,face_19,object_16,irrelevant,false_font,center,false_font_12,0.5,1.11666666666667,0.116,0.616,offset,1100,142,2469.57999039679,NaN,0,cr,1,2470.1960284,1100,1,2470.9479375,1100,0,2470.08004083227,2471.57995394195,2472.6883706,NaN,NaN,0,NaN,0.751909099999921
SX103,prp,0,5,32,face_19,object_16,target,object,right,object_16,0.5,1.96666666666667,0.232,0.232,onset,1000,246,2472.69662556131,2474.061404,1,hit,2,2472.9286936,1000,1,2475.1794614,1,1000,2473.19658299679,2474.69653963227,2476.6549722,NaN,NaN,0,1.36477843868761,2.25076780000018
SX103,prp,0,5,33,face_19,object_16,non-target,object,center,object_17,1,0.916666666666667,0.232,0.232,onset,1100,207,2476.66315440647,NaN,0,cr,1,2476.8953145,1100,1,2478.1789395,1100,0,2477.66314019356,2478.66312453872,2479.5717652,NaN,NaN,0,NaN,1.28362500000003
SX103,prp,0,5,34,face_19,object_16,non-target,face,left,face_05,0.5,1.8,0.466,0.466,onset,1000,95,2479.57976957743,NaN,0,cr,2,2480.0459681,1000,1,2480.7693194,1000,0,2480.07975113227,2481.57970904195,2483.3717152,NaN,NaN,0,NaN,0.723351299999649
SX103,prp,0,5,35,face_19,object_16,irrelevant,false_font,center,false_font_13,1,1.18333333333333,0.466,1.466,offset,1100,143,2483.37967374195,NaN,0,cr,1,2484.8458372,1100,1,2485.4554512,1100,0,2484.37964439679,2485.3796278484,2486.5547002,NaN,NaN,0,NaN,0.609613999999965
SX103,prp,0,5,36,face_19,object_16,non-target,face,center,face_13,1.5,1.86666666666667,0.466,1.966,offset,1000,83,2486.56292004195,NaN,0,cr,2,2488.5289603,1000,1,2489.1503555,1000,0,2488.06288649679,2488.56287773227,2490.4213324,NaN,NaN,0,NaN,0.621395199999824
SX103,prp,0,6,1,face_07,object_01,non-target,object,left,object_19,1,1.93333333333333,0.466,0.466,onset,1000,229,2509.42905390647,NaN,0,cr,2,2509.8953056,1000,1,2511.5629333,1000,0,2510.42902853227,2511.42899497099,2513.3542302,NaN,NaN,2499.44595353227,NaN,1.66762770000014
SX103,prp,0,6,2,face_07,object_01,target,face,center,face_07,1.5,1.21666666666667,0.232,0.232,onset,1000,77,2513.36228024195,2514.5141733,1,hit,2,2513.5944514,1000,1,2515.1312185,1,1000,2514.86224779679,2515.36224318711,2516.5706384,NaN,NaN,0,1.15189305804597,1.53676710000036
SX103,prp,0,6,3,face_07,object_01,target,object,center,object_01,1,0.85,0.116,0.116,onset,1100,191,2516.57886849679,2517.5593717,1,hit,1,2516.694963,1100,1,2518.291886,1,1100,2517.57884864195,2518.57883028711,2519.4205501,NaN,NaN,0,0.980503203206808,1.59692300000006
SX103,prp,0,6,4,face_07,object_01,non-target,face,left,face_20,0.5,0.783333333333333,0.232,0.732,offset,1000,110,2519.42880168711,NaN,0,cr,2,2520.1609639,1000,1,2521.0554067,1000,0,2519.92879659679,2521.42876178711,2522.2039728,NaN,NaN,0,NaN,0.894442799999979
SX103,prp,0,6,5,face_07,object_01,non-target,face,center,face_16,0.5,1.1,0,0.5,offset,1000,86,2522.21207638711,NaN,0,cr,2,2522.713198,1000,1,2523.1805451,1000,0,2522.71205634195,2524.21202403227,2525.3038376,NaN,NaN,0,NaN,0.467347100000097
SX103,prp,0,6,6,face_07,object_01,irrelevant,letter,left,letter_05,0.5,1.13333333333333,0.232,0.732,offset,1100,35,2525.31199629679,NaN,0,cr,1,2526.0441345,1100,1,2526.5649071,1100,0,2525.81198733227,2527.31195114195,2528.4371253,NaN,NaN,0,NaN,0.520772599999873
SX103,prp,0,6,7,face_07,object_01,irrelevant,letter,center,letter_18,1,1.8,0.466,0.466,onset,1000,28,2528.44526118711,NaN,0,cr,2,2528.9113771,1000,1,2529.4134219,1000,0,2529.44522429679,2530.44520608711,2532.2370328,NaN,NaN,0,NaN,0.502044799999567
SX103,prp,0,6,8,face_07,object_01,irrelevant,letter,left,letter_11,0.5,0.916666666666667,0.466,0.466,onset,1100,41,2532.24516219679,NaN,0,cr,1,2532.7112433,1100,1,2533.3583763,1100,0,2532.74515644195,2534.24512138711,2535.1536333,NaN,NaN,0,NaN,0.64713299999994
SX103,prp,0,6,9,face_07,object_01,non-target,face,center,face_01,1,0.75,0.232,1.232,offset,1100,71,2535.16175896776,NaN,0,cr,1,2536.3939927,1100,1,2536.9761404,1100,0,2536.1617390484,2537.16171193227,2537.903614,NaN,NaN,0,NaN,0.58214769999995
SX103,prp,0,6,10,face_07,object_01,non-target,face,left,face_04,1,1.45,0.116,1.116,offset,1000,94,2537.91169449679,NaN,0,cr,2,2539.0278558,1000,1,2539.6411429,1000,0,2538.91168979356,2539.91165739356,2541.353522,NaN,NaN,0,NaN,0.61328709999998
SX103,prp,0,6,11,face_07,object_01,irrelevant,letter,center,letter_18,1,0.9,0.116,0.116,onset,1000,28,2541.36161393227,NaN,0,cr,2,2541.4777664,1000,1,2542.1033421,1000,0,2542.36158105163,2543.36155994195,2544.2534827,NaN,NaN,0,NaN,0.625575700000354
SX103,prp,0,6,12,face_07,object_01,irrelevant,false_font,center,false_font_19,1,1.46666666666667,0.466,0.466,onset,1000,149,2544.26154494195,NaN,0,cr,2,2544.7275902,1000,1,2545.5514224,1000,0,2545.26153108388,2546.26150010324,2547.7200481,NaN,NaN,0,NaN,0.823832199999742
SX103,prp,0,6,13,face_07,object_01,non-target,object,center,object_17,1.5,1.11666666666667,0.232,1.732,offset,1100,207,2547.72812809679,NaN,0,cr,1,2549.4603667,1100,1,2550.5771363,1100,0,2549.22809717743,2549.72807074195,2550.8366182,NaN,NaN,0,NaN,1.11676959999977
SX103,prp,0,6,14,face_07,object_01,non-target,face,left,face_14,1,0.833333333333333,0.466,1.466,offset,1100,104,2550.84471733227,NaN,0,cr,1,2552.3108275,1100,1,2552.9383152,1100,0,2551.84470425808,2552.84467267743,2553.6698012,NaN,NaN,0,NaN,0.627487700000074
SX103,prp,0,6,15,face_07,object_01,irrelevant,letter,left,letter_05,1.5,1.26666666666667,0.232,0.232,onset,1100,35,2553.67797657743,NaN,0,cr,1,2553.9101078,1100,1,2554.2933316,1100,0,2555.17794688711,2555.67793668711,2556.936329,NaN,NaN,0,NaN,0.383223799999996
SX103,prp,0,6,16,face_07,object_01,target,face,center,face_07,0.5,1.18333333333333,0.116,0.116,onset,1100,77,2556.94457058711,2557.7481381,1,hit,1,2557.0607566,1100,1,2558.3351515,1,1100,2557.44456500647,2558.94452074195,2560.1195796,NaN,NaN,0,0.80356751288582,1.27439490000006
SX103,prp,0,6,17,face_07,object_01,irrelevant,false_font,center,false_font_02,1.5,0.716666666666667,0.116,0.116,onset,1000,132,2560.12783536776,NaN,0,cr,2,2560.2439667,1000,1,2561.0732506,1000,0,2561.62779347743,2562.12778835808,2562.8363006,NaN,NaN,0,NaN,0.829283900000064
SX103,prp,0,6,18,face_07,object_01,irrelevant,letter,center,letter_03,1,0.833333333333333,0.232,0.232,onset,1000,13,2562.84442823227,NaN,0,cr,2,2563.0766899,1000,1,2563.5383652,1000,0,2563.84439773227,2564.84438144195,2565.6695987,NaN,NaN,0,NaN,0.461675300000024
SX103,prp,0,6,19,face_07,object_01,irrelevant,false_font,center,false_font_13,0.5,0.833333333333333,0.466,0.966,offset,1100,143,2565.67768889679,NaN,0,cr,1,2566.6438858,1100,1,2567.2358721,1100,0,2566.17768089679,2567.67764024195,2568.5027424,NaN,NaN,0,NaN,0.591986299999917
SX103,prp,0,6,20,face_07,object_01,irrelevant,letter,center,letter_15,1.5,1.36666666666667,0.232,1.732,offset,1000,25,2568.51095957743,NaN,0,cr,2,2570.2431307,1000,1,2570.7261614,1000,0,2570.01092114195,2570.51090419679,2571.8693537,NaN,NaN,0,NaN,0.483030699999745
SX103,prp,0,6,21,face_07,object_01,target,object,center,object_01,0.5,1.58333333333333,0.232,0.732,offset,1100,191,2571.87754738711,2572.8722402,1,hit,1,2572.6097984,1100,1,2573.3908384,1,1100,2572.37752229679,2573.87751820647,2575.4525654,NaN,NaN,0,0.994692812886115,0.781040000000303
SX103,prp,0,6,22,face_07,object_01,non-target,object,center,object_20,0.5,1.35,0,0.5,offset,1000,210,2575.46078639679,NaN,0,cr,2,2575.9618959,1000,1,2576.5148478,1000,0,2575.96078434195,2577.46074858711,2578.8026561,NaN,NaN,0,NaN,0.552951900000153
SX103,prp,0,6,23,face_07,object_01,irrelevant,false_font,right,false_font_19,0.5,1.53333333333333,0.232,0.232,onset,1000,189,2578.81070175163,NaN,0,cr,2,2579.0428343,1000,1,2579.4872591,1000,0,2579.31070208711,2580.81066628711,2582.3359157,NaN,NaN,0,NaN,0.444424799999979
SX103,prp,0,6,24,face_07,object_01,target,object,center,object_01,1.5,1.68333333333333,0.466,0.466,onset,1100,191,2582.34396420647,2582.9081999,1,hit,1,2582.8102077,1100,1,2583.4968484,1,1100,2583.84392590647,2584.3439179226,2586.0189748,NaN,NaN,0,0.56423569352728,0.686640700000225
SX103,prp,0,6,25,face_07,object_01,target,face,center,face_07,0.5,1.35,0.466,0.466,onset,1000,77,2586.02720609679,2587.1338873,1,hit,2,2586.4932787,1000,1,2587.492383,1,1000,2586.52719198711,2588.02715399679,2589.3688794,NaN,NaN,0,1.10668120320634,0.999104299999999
SX103,prp,0,6,26,face_07,object_01,non-target,object,right,object_06,1,1.06666666666667,0.116,0.116,onset,1100,236,2589.37712268711,NaN,0,cr,1,2589.4933526,1100,1,2590.0007859,1100,0,2590.37710079356,2591.3770823484,2592.4355811,NaN,NaN,0,NaN,0.50743330000023
SX103,prp,0,6,27,face_07,object_01,irrelevant,false_font,right,false_font_01,1,0.9,0.466,1.466,offset,1100,171,2592.44371559679,NaN,0,cr,1,2593.9100404,1100,1,2594.5342131,1100,0,2593.4437021484,2594.44367809356,2595.3355856,NaN,NaN,0,NaN,0.624172700000145
SX103,prp,0,6,28,face_07,object_01,non-target,object,left,object_12,0.5,0.916666666666667,0.232,0.732,offset,1100,222,2595.34364833227,NaN,0,cr,1,2596.0758873,1100,1,2596.5229985,1100,0,2595.84363309679,2597.34360478711,2598.252112,NaN,NaN,0,NaN,0.447111200000109
SX103,prp,0,6,29,face_07,object_01,irrelevant,letter,center,letter_18,1.5,0.85,0.116,0.116,onset,1000,28,2598.26025164195,NaN,0,cr,2,2598.3763715,1000,1,2598.940828,1000,0,2599.76021108711,2600.26019739679,2601.1021268,NaN,NaN,0,NaN,0.564456499999778
SX103,prp,0,6,30,face_07,object_01,irrelevant,false_font,left,false_font_11,0.5,0.716666666666667,0.466,0.466,onset,1000,161,2601.11017399679,NaN,0,cr,2,2601.5763318,1000,1,2602.11185,1000,0,2601.61017123227,2603.11012858711,2603.818647,NaN,NaN,0,NaN,0.535518199999842
SX103,prp,0,6,31,face_07,object_01,non-target,object,center,object_20,1.5,0.9,0,0,onset,1100,210,2603.82678544195,NaN,0,cr,1,2603.8277927,1100,1,2604.2141501,1100,0,2605.32674544195,2605.82673749679,2606.7186533,NaN,NaN,0,NaN,0.386357400000179
SX103,prp,0,6,32,face_07,object_01,non-target,face,right,face_05,1,1.53333333333333,0.116,0.116,onset,1000,115,2606.72670819679,NaN,0,cr,2,2606.8428021,1000,1,2607.2758495,1000,0,2607.72669123872,2608.72666798388,2610.2518586,NaN,NaN,0,NaN,0.43304739999985
SX103,prp,0,6,33,face_07,object_01,non-target,object,left,object_04,1,1.48333333333333,0.466,1.466,offset,1100,214,2610.25995186131,NaN,0,cr,1,2611.7260391,1100,1,2612.3138591,1100,0,2611.25993391615,2612.25990464195,2613.7350735,NaN,NaN,0,NaN,0.587820000000193
SX103,prp,0,6,34,face_07,object_01,irrelevant,letter,center,letter_19,1.5,1.16666666666667,0.466,1.966,offset,1000,29,2613.74320801615,NaN,0,cr,2,2615.7093176,1000,1,2616.192316,1000,0,2615.24316740647,2615.74315559679,2616.9017483,NaN,NaN,0,NaN,0.48299840000027
SX103,prp,0,6,35,face_07,object_01,non-target,object,center,object_20,1.5,1.9,0.116,0.116,onset,1000,210,2616.90979425163,NaN,0,cr,2,2617.0260209,1000,1,2617.4808419,1000,0,2618.40976004195,2618.90974534195,2620.8016422,NaN,NaN,0,NaN,0.454821000000265
SX103,prp,0,6,36,face_07,object_01,irrelevant,letter,right,letter_11,0.5,1.13333333333333,0.232,0.232,onset,1000,61,2620.80971307743,NaN,0,cr,2,2621.0418324,1000,1,2621.4700802,1000,0,2621.30970058711,2622.80965418711,2623.93485,NaN,NaN,0,NaN,0.428247800000008
SX103,prp,0,6,37,face_07,object_01,non-target,object,center,object_11,0.5,1.66666666666667,0.232,0.732,offset,1000,201,2623.94297294195,NaN,0,cr,2,2624.6750127,1000,1,2625.0758497,1000,0,2624.44295849679,2625.94291749679,2627.6013646,NaN,NaN,0,NaN,0.400837000000138
SX103,prp,0,6,38,face_07,object_01,non-target,face,center,face_08,0.5,1.13333333333333,0.116,0.616,offset,1000,78,2627.60954799679,NaN,0,cr,2,2628.2256939,1000,1,2628.7618438,1000,0,2628.10953248711,2629.60950374195,2630.7347732,NaN,NaN,0,NaN,0.536149900000055
SX103,prp,0,7,1,letter_12,false_font_07,non-target,letter,right,letter_16,0.5,1.51666666666667,0.232,0.232,onset,1000,66,2648.24240375811,NaN,0,cr,2,2648.4745818,1000,1,2649.7147686,1000,0,2648.74236794195,2650.24233889679,2651.75099,NaN,NaN,2638.12598873227,NaN,1.24018679999972
SX103,prp,0,7,2,letter_12,false_font_07,irrelevant,object,right,object_19,1.5,0.8,0.466,0.466,onset,1000,249,2651.75896859679,NaN,0,cr,2,2652.2252011,1000,1,2652.7477748,1000,0,2653.25893794195,2653.75892738711,2654.5507435,NaN,NaN,0,NaN,0.522573700000066
SX103,prp,0,7,3,letter_12,false_font_07,irrelevant,object,right,object_09,1.5,1.03333333333333,0.232,1.732,offset,1000,239,2654.55890699679,NaN,0,cr,2,2656.2911381,1000,1,2656.8417358,1000,0,2656.05886798711,2656.55885554195,2657.5840769,NaN,NaN,0,NaN,0.550597700000253
SX103,prp,0,7,4,letter_12,false_font_07,irrelevant,face,center,face_04,1.5,1.01666666666667,0.232,1.732,offset,1100,74,2657.59217393227,NaN,0,cr,1,2659.3242894,1100,1,2659.893261,1100,0,2659.09212859679,2659.59212253227,2660.6006079,NaN,NaN,0,NaN,0.568971600000168
SX103,prp,0,7,5,letter_12,false_font_07,irrelevant,object,right,object_08,1,1.53333333333333,0,0,onset,1100,238,2660.6087684484,NaN,0,cr,1,2660.6096228,1100,1,2661.1397582,1100,0,2661.60873055163,2662.60870519679,2664.1338043,NaN,NaN,0,NaN,0.530135399999835
SX103,prp,0,7,6,letter_12,false_font_07,non-target,false_font,center,false_font_13,1,1.31666666666667,0.466,1.466,offset,1000,143,2664.14199884195,NaN,0,cr,2,2665.6080709,1000,1,2666.3410993,1000,0,2665.14198248711,2666.14195474195,2667.4505335,NaN,NaN,0,NaN,0.733028400000421
SX103,prp,0,7,7,letter_12,false_font_07,non-target,letter,center,letter_17,0.5,1.35,0.116,0.116,onset,1100,27,2667.45859484195,NaN,0,cr,1,2667.5748255,1100,1,2668.3352482,1100,0,2667.95858921615,2669.45854818711,2670.8003041,NaN,NaN,0,NaN,0.760422700000163
SX103,prp,0,7,8,letter_12,false_font_07,irrelevant,object,center,object_02,0.5,1.08333333333333,0,0.5,offset,1000,192,2670.80851429679,NaN,0,cr,2,2671.3096162,1000,1,2671.8237933,1000,0,2671.30850498711,2672.80845944195,2673.8837036,NaN,NaN,0,NaN,0.51417709999987
SX103,prp,0,7,9,letter_12,false_font_07,target,letter,center,letter_12,0.5,0.866666666666667,0.466,0.466,onset,1100,22,2673.89177599679,2674.8662784,1,hit,1,2674.357893,1100,1,2675.4151777,1,1100,2674.39176174195,2675.89172318711,2676.7501237,NaN,NaN,0,0.974502403206316,1.05728470000031
SX103,prp,0,7,10,letter_12,false_font_07,irrelevant,face,right,face_01,1,0.766666666666667,0.466,1.466,offset,1100,111,2676.75836994195,NaN,0,cr,1,2678.2244586,1100,1,2678.8872517,1100,0,2677.75837719679,2678.75831768711,2679.516819,NaN,NaN,0,NaN,0.662793099999817
SX103,prp,0,7,11,letter_12,false_font_07,non-target,false_font,left,false_font_02,0.5,1.8,0.466,0.966,offset,1000,152,2679.52496274195,NaN,0,cr,2,2680.4910309,1000,1,2681.1791503,1000,0,2680.02495645163,2681.52492259679,2683.3168892,NaN,NaN,0,NaN,0.688119399999778
SX103,prp,0,7,12,letter_12,false_font_07,non-target,letter,left,letter_02,1.5,1.11666666666667,0.116,0.116,onset,1100,32,2683.32486975163,NaN,0,cr,1,2683.4410071,1100,1,2683.9330111,1100,0,2684.82483514195,2685.32483003227,2686.4333791,NaN,NaN,0,NaN,0.492003999999724
SX103,prp,0,7,13,letter_12,false_font_07,irrelevant,object,left,object_01,1.5,0.916666666666667,0.466,1.966,offset,1100,211,2686.44146455163,NaN,0,cr,1,2688.4075964,1100,1,2689.0773323,1100,0,2687.94142978711,2688.44141348711,2689.3499935,NaN,NaN,0,NaN,0.669735899999978
SX103,prp,0,7,14,letter_12,false_font_07,non-target,false_font,left,false_font_20,1.5,1.25,0.116,1.616,offset,1000,170,2689.3580735226,NaN,0,cr,2,2690.9741664,1000,1,2691.4367993,1000,0,2690.85807566776,2691.35805604195,2692.5999837,NaN,NaN,0,NaN,0.462632900000244
SX103,prp,0,7,15,letter_12,false_font_07,non-target,letter,right,letter_19,0.5,0.733333333333333,0,0.5,offset,1000,69,2692.60799354195,NaN,0,cr,2,2693.1091821,1000,1,2693.640262,1000,0,2693.10797355163,2694.60793605163,2695.3331075,NaN,NaN,0,NaN,0.531079899999895
SX103,prp,0,7,16,letter_12,false_font_07,non-target,letter,center,letter_16,0.5,1,0.232,0.732,offset,1000,26,2695.34125887743,NaN,0,cr,2,2696.0734945,1000,1,2696.7522875,1000,0,2695.84123315163,2697.34121178711,2698.3331561,NaN,NaN,0,NaN,0.678793000000042
SX103,prp,0,7,17,letter_12,false_font_07,non-target,false_font,center,false_font_08,0.5,1.28333333333333,0.116,0.616,offset,1100,138,2698.3411854226,NaN,0,cr,1,2698.9573493,1100,1,2699.4102686,1100,0,2698.84116329679,2700.34113707743,2701.6162523,NaN,NaN,0,NaN,0.452919300000303
SX103,prp,0,7,18,letter_12,false_font_07,target,false_font,center,false_font_07,0.5,0.7,0.116,0.116,onset,1000,137,2701.62444089679,2702.6402116,1,hit,2,2701.7406458,1000,1,2703.1449874,1,1000,2702.12442914195,2703.62438128711,2704.3161234,NaN,NaN,0,1.01577070320673,1.40434159999995
SX103,prp,0,7,19,letter_12,false_font_07,irrelevant,object,center,object_18,1.5,1.36666666666667,0.466,0.466,onset,1100,208,2704.32437297743,NaN,0,cr,1,2704.7907254,1100,1,2705.460725,1100,0,2705.82433425163,2706.32432874195,2707.6829352,NaN,NaN,0,NaN,0.669999599999755
SX103,prp,0,7,20,letter_12,false_font_07,non-target,false_font,right,false_font_02,0.5,0.9,0,0.5,offset,1000,172,2707.69095239679,NaN,0,cr,2,2708.1920204,1000,1,2708.8246825,1000,0,2708.19094278711,2709.69090738711,2710.582826,NaN,NaN,0,NaN,0.632662100000289
SX103,prp,0,7,21,letter_12,false_font_07,non-target,letter,right,letter_09,1.5,0.733333333333333,0.232,0.232,onset,1100,59,2710.59088324195,NaN,0,cr,1,2710.8229211,1100,1,2711.3311795,1100,0,2712.09085114195,2712.59083184195,2713.3159168,NaN,NaN,0,NaN,0.508258400000159
SX103,prp,0,7,22,letter_12,false_font_07,non-target,false_font,center,false_font_19,0.5,1.21666666666667,0,0.5,offset,1000,149,2713.32415788711,NaN,0,cr,2,2713.8252581,1000,1,2714.6480163,1000,0,2713.82413767743,2715.32410129679,2716.5325299,NaN,NaN,0,NaN,0.822758199999953
SX103,prp,0,7,23,letter_12,false_font_07,non-target,letter,left,letter_14,0.5,1,0.116,0.616,offset,1100,44,2716.54074454195,NaN,0,cr,1,2717.156979,1100,1,2717.741156,1100,0,2717.04078594195,2718.54068579679,2719.5325306,NaN,NaN,0,NaN,0.584177000000182
SX103,prp,0,7,24,letter_12,false_font_07,irrelevant,face,center,face_02,0.5,0.916666666666667,0.232,0.232,onset,1000,72,2719.54068870324,NaN,0,cr,2,2719.7727641,1000,1,2720.3372822,1000,0,2720.04066114195,2721.54061819679,2722.4491917,NaN,NaN,0,NaN,0.564518099999987
SX103,prp,0,7,25,letter_12,false_font_07,irrelevant,object,center,object_11,0.5,1.45,0.116,0.116,onset,1000,201,2722.45726265163,NaN,0,cr,2,2722.5733406,1000,1,2723.0672828,1000,0,2722.95724985163,2724.45722174195,2725.899165,NaN,NaN,0,NaN,0.49394220000022
SX103,prp,0,7,26,letter_12,false_font_07,irrelevant,face,center,face_19,1,1.28333333333333,0.116,0.116,onset,1000,89,2725.90717684195,NaN,0,cr,2,2726.0233118,1000,1,2727.0437349,1000,0,2726.90716172259,2727.90714144195,2729.1824899,NaN,NaN,0,NaN,1.02042309999979
SX103,prp,0,7,27,letter_12,false_font_07,irrelevant,face,right,face_14,0.5,1.65,0.232,0.232,onset,1000,124,2729.19043940647,NaN,0,cr,2,2729.4225048,1000,1,2730.2662578,1000,0,2729.69042106131,2731.19039558711,2732.8322006,NaN,NaN,0,NaN,0.843753000000106
SX103,prp,0,7,28,letter_12,false_font_07,non-target,letter,center,letter_13,0.5,0.766666666666667,0,0,onset,1100,23,2732.84035868711,NaN,0,cr,1,2732.8413606,1100,1,2733.3877578,1100,0,2733.34034029679,2734.84030858711,2735.5988987,NaN,NaN,0,NaN,0.546397200000229
SX103,prp,0,7,29,letter_12,false_font_07,irrelevant,object,left,object_07,1.5,1.73333333333333,0.232,1.732,offset,1000,217,2735.60694534195,NaN,0,cr,2,2737.3390603,1000,1,2737.8842026,1000,0,2737.10692154195,2737.60690199679,2739.3321768,NaN,NaN,0,NaN,0.545142300000407
SX103,prp,0,7,30,letter_12,false_font_07,non-target,letter,left,letter_14,1,0.766666666666667,0.232,0.232,onset,1100,44,2739.34020094195,NaN,0,cr,1,2739.5723103,1100,1,2739.9941523,1100,0,2740.34017821292,2741.34014900324,2742.0985519,NaN,NaN,0,NaN,0.421842000000197
SX103,prp,0,7,31,letter_12,false_font_07,target,false_font,center,false_font_07,1,0.866666666666667,0.232,1.232,offset,1000,137,2742.10679134195,2743.1957341,1,hit,2,2743.3388624,1000,1,2744.3167074,1,1000,2743.1067747226,2744.10675679356,2744.9651423,NaN,NaN,0,1.08894275804641,0.977844999999888
SX103,prp,0,7,32,letter_12,false_font_07,non-target,false_font,right,false_font_13,1,1.66666666666667,0.116,1.116,offset,1000,183,2744.97339239679,NaN,0,cr,2,2746.0894957,1000,1,2746.5053004,1000,0,2745.97337190324,2746.97334920324,2748.6318602,NaN,NaN,0,NaN,0.415804700000081
SX103,prp,0,7,33,letter_12,false_font_07,irrelevant,object,right,object_18,0.5,1.01666666666667,0.466,0.966,offset,1000,248,2748.63996928711,NaN,0,cr,2,2749.6061964,1000,1,2750.1856914,1000,0,2749.13996759679,2750.63994828711,2751.6484811,NaN,NaN,0,NaN,0.579494999999952
SX103,prp,0,7,34,letter_12,false_font_07,irrelevant,face,right,face_02,0.5,0.716666666666667,0.232,0.732,offset,1100,112,2751.65657000324,NaN,0,cr,1,2752.3887248,1100,1,2753.1046694,1100,0,2752.1565534226,2753.65651473227,2754.364923,NaN,NaN,0,NaN,0.715944600000057
SX103,prp,0,7,35,letter_12,false_font_07,irrelevant,object,right,object_11,1.5,1.03333333333333,0.466,1.966,offset,1000,241,2754.37316686776,NaN,0,cr,2,2756.3392697,1000,1,2757.1770317,1000,0,2755.87313194195,2756.37312035163,2757.3982961,NaN,NaN,0,NaN,0.837762000000112
SX103,prp,0,8,1,letter_10,false_font_17,target,false_font,center,false_font_17,1.5,1,0.232,1.732,offset,1100,147,2770.18945659679,2771.0580625,1,hit,1,2771.9214992,1100,1,2772.621682,1,1100,2771.68943264195,2772.18941174195,2773.1811397,NaN,NaN,2763.28963438711,0.868605903206571,0.700182799999766
SX103,prp,0,8,2,letter_10,false_font_17,irrelevant,object,center,object_08,1.5,1.1,0.232,0.232,onset,1100,198,2773.18939436776,NaN,0,cr,1,2773.4216476,1100,1,2773.8760013,1100,0,2774.68934740647,2775.18935869035,2776.281244,NaN,NaN,0,NaN,0.454353699999956
SX103,prp,0,8,3,letter_10,false_font_17,irrelevant,face,right,face_16,1.5,0.733333333333333,0.116,1.616,offset,1100,126,2776.28931274195,NaN,0,cr,1,2777.9055533,1100,1,2778.5247239,1100,0,2777.78927059679,2778.28927078711,2779.0144144,NaN,NaN,0,NaN,0.619170599999961
SX103,prp,0,8,4,letter_10,false_font_17,non-target,letter,center,letter_18,1.5,1.4,0.466,0.466,onset,1000,28,2779.02258268711,NaN,0,cr,2,2779.48875,1000,1,2779.9691997,1000,0,2780.52254414195,2781.02252519679,2782.4144171,NaN,NaN,0,NaN,0.480449700000008
SX103,prp,0,8,5,letter_10,false_font_17,target,letter,right,letter_10,1,1.5,0.232,1.232,offset,1100,60,2782.42251789679,2783.0700832,1,hit,1,2783.6546576,1100,1,2784.1107297,1,1100,2783.42247794195,2784.42244925163,2785.9142054,NaN,NaN,0,0.647565303206648,0.456072099999801
SX103,prp,0,8,6,letter_10,false_font_17,non-target,false_font,center,false_font_18,1.5,1.48333333333333,0.232,0.232,onset,1100,148,2785.92241468711,NaN,0,cr,1,2786.1545592,1100,1,2787.4361221,1100,0,2787.42238109679,2787.92236139679,2789.3976443,NaN,NaN,0,NaN,1.2815628999997
SX103,prp,0,8,7,letter_10,false_font_17,target,false_font,left,false_font_17,0.5,0.833333333333333,0.466,0.966,offset,1100,167,2789.40566878711,2790.6668795,1,hit,1,2790.3717484,1100,1,2791.1441797,1,1100,2789.90564595163,2791.40562383227,2792.2306872,NaN,NaN,0,1.26121071288617,0.772431300000335
SX103,prp,0,8,8,letter_10,false_font_17,non-target,letter,right,letter_18,1.5,1.01666666666667,0.116,0.116,onset,1100,68,2792.23893746776,NaN,0,cr,1,2792.3551873,1100,1,2792.8639226,1100,0,2793.73889699679,2794.23887754195,2795.2474162,NaN,NaN,0,NaN,0.508735299999898
SX103,prp,0,8,9,letter_10,false_font_17,non-target,false_font,center,false_font_13,1,0.95,0,0,onset,1100,143,2795.2555332226,NaN,0,cr,1,2795.2564357,1100,1,2795.8689578,1100,0,2796.25549819679,2797.25547554195,2798.1973126,NaN,NaN,0,NaN,0.612522099999751
SX103,prp,0,8,10,letter_10,false_font_17,non-target,false_font,left,false_font_02,1,1.2,0,0,onset,1000,152,2798.20545648711,NaN,0,cr,2,2798.2065079,1000,1,2798.8096572,1000,0,2799.2054383484,2800.20541209356,2801.3971368,NaN,NaN,0,NaN,0.603149300000041
SX103,prp,0,8,11,letter_10,false_font_17,irrelevant,object,right,object_04,0.5,1.06666666666667,0.466,0.966,offset,1000,234,2801.40537097743,NaN,0,cr,2,2802.3715885,1000,1,2802.9021078,1000,0,2801.90537515808,2803.40532673227,2804.4638896,NaN,NaN,0,NaN,0.530519299999924
SX103,prp,0,8,12,letter_10,false_font_17,non-target,letter,left,letter_04,1.5,0.966666666666667,0.466,1.966,offset,1100,34,2804.47198609679,NaN,0,cr,1,2806.438166,1100,1,2806.8580412,1100,0,2805.97192888067,2806.47192124195,2807.4305352,NaN,NaN,0,NaN,0.419875200000206
SX103,prp,0,8,13,letter_10,false_font_17,irrelevant,object,right,object_19,0.5,1.85,0.466,0.466,onset,1100,249,2807.43855649679,NaN,0,cr,1,2807.9046858,1100,1,2808.3806187,1100,0,2807.9385501226,2809.43851775163,2811.2802962,NaN,NaN,0,NaN,0.475932899999862
SX103,prp,0,8,14,letter_10,false_font_17,non-target,false_font,left,false_font_14,0.5,0.783333333333333,0,0.5,offset,1100,164,2811.28847783227,NaN,0,cr,1,2811.7896133,1100,1,2812.2729103,1100,0,2811.78850154195,2813.28842948711,2814.0635514,NaN,NaN,0,NaN,0.483297000000221
SX103,prp,0,8,15,letter_10,false_font_17,irrelevant,face,right,face_09,1,1.03333333333333,0,1,offset,1000,119,2814.07174254195,NaN,0,cr,2,2815.072666,1000,1,2815.5956051,1000,0,2815.07172543872,2816.0717017484,2817.0969269,NaN,NaN,0,NaN,0.522939099999803
SX103,prp,0,8,16,letter_10,false_font_17,target,letter,right,letter_10,1,1.46666666666667,0.116,1.116,offset,1000,60,2817.10500099356,2817.8365643,1,hit,2,2818.2210982,1100,0,2818.5876078,1,1100,2818.10497368711,2819.10495054195,2820.5633522,NaN,NaN,0,0.731563306443149,0.366509599999972
SX103,prp,0,8,17,letter_10,false_font_17,non-target,false_font,left,false_font_09,0.5,0.7,0.232,0.732,offset,1100,159,2820.57157904195,NaN,0,cr,1,2821.3036674,1100,1,2822.2336373,1100,0,2821.07160164195,2822.57153429679,2823.2632743,NaN,NaN,0,NaN,0.929969899999833
SX103,prp,0,8,18,letter_10,false_font_17,irrelevant,object,center,object_19,1,1.63333333333333,0.116,1.116,offset,1100,209,2823.27151926776,NaN,0,cr,1,2824.3877278,1100,1,2824.8726441,1100,0,2824.27148906131,2825.27147349356,2826.8966477,NaN,NaN,0,NaN,0.484916299999895
SX103,prp,0,8,19,letter_10,false_font_17,irrelevant,face,right,face_11,1.5,0.883333333333333,0,1.5,offset,1000,121,2826.90475236131,NaN,0,cr,2,2828.4059403,1000,1,2828.928187,1000,0,2828.40471759679,2828.90470986131,2829.7798846,NaN,NaN,0,NaN,0.522246699999869
SX103,prp,0,8,20,letter_10,false_font_17,irrelevant,object,right,object_08,1.5,0.783333333333333,0.116,1.616,offset,1000,238,2829.78802088711,NaN,0,cr,2,2831.4041187,1000,1,2831.9011134,1000,0,2831.28798645163,2831.78797194195,2832.5630891,NaN,NaN,0,NaN,0.496994700000414
SX103,prp,0,8,21,letter_10,false_font_17,non-target,letter,right,letter_02,1,1.05,0.116,1.116,offset,1000,52,2832.57128875163,NaN,0,cr,2,2833.6874271,1000,1,2834.1046931,1000,0,2833.57127583227,2834.57123998711,2835.6131905,NaN,NaN,0,NaN,0.417265999999927
SX103,prp,0,8,22,letter_10,false_font_17,irrelevant,face,left,face_07,0.5,1.58333333333333,0.466,0.466,onset,1000,97,2835.62121238711,NaN,0,cr,2,2836.0872705,1000,1,2836.8286289,1000,0,2836.12121009679,2837.62116694195,2839.1963281,NaN,NaN,0,NaN,0.741358399999626
SX103,prp,0,8,23,letter_10,false_font_17,non-target,letter,center,letter_07,0.5,1.86666666666667,0.466,0.466,onset,1100,17,2839.20446068711,NaN,0,cr,1,2839.670676,1100,1,2840.1449545,1100,0,2839.70445714195,2841.20442334195,2843.0628718,NaN,NaN,0,NaN,0.474278499999855
SX103,prp,0,8,24,letter_10,false_font_17,non-target,false_font,center,false_font_09,1,0.8,0.466,0.466,onset,1100,139,2843.07104024195,NaN,0,cr,1,2843.53729,1100,1,2844.5851287,1100,0,2844.07101424195,2845.07098281615,2845.8627921,NaN,NaN,0,NaN,1.04783869999983
SX103,prp,0,8,25,letter_10,false_font_17,irrelevant,object,center,object_09,1.5,1.55,0.466,0.466,onset,1000,199,2845.87098093227,NaN,0,cr,2,2846.3371067,1000,1,2846.8730603,1000,0,2847.37094224195,2847.87092864195,2849.4126986,NaN,NaN,0,NaN,0.535953600000084
SX103,prp,0,8,26,letter_10,false_font_17,irrelevant,object,right,object_14,1.5,0.75,0.466,1.966,offset,1000,244,2849.42089119679,NaN,0,cr,2,2851.3870977,1000,1,2852.0429646,1000,0,2850.92085043227,2851.42083484195,2852.1626044,NaN,NaN,0,NaN,0.655866899999637
SX103,prp,0,8,27,letter_10,false_font_17,non-target,false_font,left,false_font_15,1,1.43333333333333,0.232,0.232,onset,1100,165,2852.17082020647,NaN,0,cr,1,2852.4031353,1100,1,2853.0880914,1100,0,2853.17080217743,2854.17080590647,2855.5960322,NaN,NaN,0,NaN,0.684956099999908
SX103,prp,0,8,28,letter_10,false_font_17,non-target,false_font,center,false_font_13,0.5,0.833333333333333,0.466,0.966,offset,1000,143,2855.60407526775,NaN,0,cr,2,2856.5703139,1000,1,2857.0856194,1000,0,2856.10406438711,2857.60403373227,2858.4291441,NaN,NaN,0,NaN,0.515305499999613
SX103,prp,0,8,29,letter_10,false_font_17,non-target,letter,right,letter_04,1.5,0.733333333333333,0.116,1.616,offset,1000,54,2858.43735535163,NaN,0,cr,2,2860.0534103,1000,1,2860.5508497,1000,0,2859.93730859679,2860.43728795163,2861.162552,NaN,NaN,0,NaN,0.497439400000076
SX103,prp,0,8,30,letter_10,false_font_17,irrelevant,face,left,face_14,1.5,0.833333333333333,0.116,1.616,offset,1000,104,2861.17060414195,NaN,0,cr,2,2862.7867692,1000,1,2863.2556237,1000,0,2862.67056872583,2863.17055479679,2863.9957878,NaN,NaN,0,NaN,0.468854499999907
SX103,prp,0,8,31,letter_10,false_font_17,non-target,letter,left,letter_15,1.5,1.16666666666667,0.232,1.732,offset,1100,45,2864.00387875163,NaN,0,cr,1,2865.7361048,1100,1,2866.211201,1100,0,2865.50383079679,2866.00382689679,2867.1623542,NaN,NaN,0,NaN,0.47509620000028
SX103,prp,0,8,32,letter_10,false_font_17,target,false_font,right,false_font_17,1,1.66666666666667,0,1,offset,1100,187,2867.17054066131,2867.9785772,1,hit,1,2868.1715552,1100,1,2868.7591335,1,1100,2868.17044784195,2869.1704600484,2870.8288819,NaN,NaN,0,0.808036538687702,0.587578300000132
SX103,prp,0,8,33,letter_10,false_font_17,irrelevant,object,right,object_20,1,1.7,0.466,1.466,offset,1000,250,2870.83703969679,NaN,0,cr,2,2872.3032238,1000,1,2873.1776027,1000,0,2871.83702624195,2872.83700860324,2874.5288633,NaN,NaN,0,NaN,0.874378900000011
SX103,prp,0,8,34,letter_10,false_font_17,irrelevant,face,left,face_14,0.5,1.13333333333333,0.116,0.616,offset,1000,104,2874.53695755163,NaN,0,cr,2,2875.1530194,1000,1,2875.6616223,1000,0,2875.03694159679,2876.53691154195,2877.6620437,NaN,NaN,0,NaN,0.508602899999914
SX103,prp,0,8,35,letter_10,false_font_17,non-target,false_font,left,false_font_04,1.5,1.6,0,1.5,offset,1000,154,2877.67021739679,NaN,0,cr,2,2879.1713345,1000,1,2880.0495736,1000,0,2879.17017358711,2879.67016068711,2881.2620996,NaN,NaN,0,NaN,0.878239099999973
SX103,prp,0,8,36,letter_10,false_font_17,target,letter,right,letter_10,1,0.933333333333333,0,0,onset,1100,60,2881.27013109679,2881.831704,1,hit,1,2881.2712169,0,NaN,NaN,1,0,2882.27010429679,2883.27007767743,2884.1951572,NaN,NaN,0,0.561572903206979,NaN
SX103,prp,0,8,37,letter_10,false_font_17,irrelevant,face,right,face_06,0.5,1.36666666666667,0,0,onset,1000,116,2884.20340127743,NaN,0,cr,2,2884.2043597,1100,0,2884.3019145,1100,1000,2884.70338982259,2886.20334985163,2887.5617564,NaN,NaN,0,NaN,0.0975547999996706
SX103,prp,0,8,38,letter_10,false_font_17,irrelevant,face,center,face_16,1.5,0.833333333333333,0.232,0.232,onset,1100,86,2887.56997590647,NaN,0,cr,1,2887.8022057,1100,1,2888.3921277,1100,0,2889.06994776131,2889.56998144195,2890.3949925,NaN,NaN,0,NaN,0.589922000000115
SX103,prp,0,9,1,letter_07,false_font_13,non-target,false_font,left,false_font_16,1.5,1.16666666666667,0.232,0.232,onset,1000,166,2911.51945942583,NaN,0,cr,2,2911.7516022,1000,1,2913.0685198,1000,0,2913.01936748711,2913.51935932583,2914.6778718,NaN,NaN,2902.26963464195,NaN,1.31691760000012
SX103,prp,0,9,2,letter_07,false_font_13,non-target,false_font,center,false_font_05,0.5,1,0.232,0.232,onset,1000,135,2914.68599193227,NaN,0,cr,2,2914.9181073,1000,1,2915.7529883,1000,0,2915.1859871226,2916.68598560647,2917.6777873,NaN,NaN,0,NaN,0.834881000000223
SX103,prp,0,9,3,letter_07,false_font_13,target,false_font,right,false_font_13,1,1.21666666666667,0,0,onset,1100,183,2917.68597667743,2918.8718894,1,hit,1,2917.6870662,1100,1,2919.205603,1,1100,2918.68590551292,2919.68587776776,2920.8943262,NaN,NaN,0,1.18591272256526,1.51853679999977
SX103,prp,0,9,4,letter_07,false_font_13,irrelevant,face,right,face_11,0.5,0.766666666666667,0.116,0.616,offset,1000,121,2920.90251555163,NaN,0,cr,2,2921.5186589,1000,1,2922.0349076,1000,0,2921.40255424195,2922.90254714195,2923.6609981,NaN,NaN,0,NaN,0.516248700000233
SX103,prp,0,9,5,letter_07,false_font_13,irrelevant,face,left,face_08,1.5,1.11666666666667,0,1.5,offset,1100,98,2923.66911224195,NaN,0,cr,1,2925.170409,1100,1,2926.0079474,1100,0,2925.16913449679,2925.66905975163,2926.7776572,NaN,NaN,0,NaN,0.837538400000085
SX103,prp,0,9,6,letter_07,false_font_13,target,letter,left,letter_07,1.5,1.05,0.116,0.116,onset,1000,37,2926.78571419679,2927.7335292,1,hit,2,2926.9019524,1000,1,2928.1868051,1,1000,2928.28567457743,2928.78566488711,2929.8273959,NaN,NaN,0,0.947815003206415,1.2848527000001
SX103,prp,0,9,7,letter_07,false_font_13,irrelevant,face,center,face_02,0.5,1.18333333333333,0,0.5,offset,1100,72,2929.83562917743,NaN,0,cr,1,2930.3366688,1100,1,2931.0118499,1100,0,2930.3356237226,2931.83563825163,2933.0106374,NaN,NaN,0,NaN,0.675181099999918
SX103,prp,0,9,8,letter_07,false_font_13,irrelevant,face,center,face_12,0.5,1.76666666666667,0.116,0.616,offset,1000,82,2933.01890027743,NaN,0,cr,2,2933.6350066,1000,1,2934.1429482,1000,0,2933.51887854195,2935.01884998711,2936.7773902,NaN,NaN,0,NaN,0.507941599999867
SX103,prp,0,9,9,letter_07,false_font_13,non-target,letter,center,letter_20,0.5,1,0.116,0.116,onset,1000,30,2936.7855434226,NaN,0,cr,2,2936.9017191,1000,1,2937.8680532,1000,0,2937.28545523227,2938.78542498711,2939.7773057,NaN,NaN,0,NaN,0.96633410000004
SX103,prp,0,9,10,letter_07,false_font_13,non-target,letter,center,letter_02,1,1.11666666666667,0,0,onset,1000,12,2939.78545743227,NaN,0,cr,2,2939.7864574,1000,1,2940.3624824,1000,0,2940.7853737484,2941.78535759356,2942.8938433,NaN,NaN,0,NaN,0.576024999999845
SX103,prp,0,9,11,letter_07,false_font_13,non-target,false_font,right,false_font_15,1,1.5,0.466,1.466,offset,1000,185,2942.90198845163,NaN,0,cr,2,2944.3681997,1000,1,2944.9485356,1000,0,2943.90201608711,2944.90194175808,2946.3936797,NaN,NaN,0,NaN,0.580335900000136
SX103,prp,0,9,12,letter_07,false_font_13,irrelevant,face,left,face_18,0.5,1.3,0,0.5,offset,1100,108,2946.40189959679,NaN,0,cr,1,2946.9029963,1100,1,2947.4860922,1100,0,2946.90188289679,2948.40186038711,2949.6936571,NaN,NaN,0,NaN,0.583095899999989
SX103,prp,0,9,13,letter_07,false_font_13,non-target,false_font,center,false_font_04,1.5,1.55,0.232,0.232,onset,1000,134,2949.70181774195,NaN,0,cr,2,2949.9340323,1000,1,2950.6875083,1000,0,2951.20177914195,2951.70181804195,2953.2436445,NaN,NaN,0,NaN,0.753475999999864
SX103,prp,0,9,14,letter_07,false_font_13,irrelevant,object,left,object_18,1,1.35,0.466,1.466,offset,1100,228,2953.25178576131,NaN,0,cr,1,2954.7179333,1100,1,2955.2527455,1100,0,2954.25172203227,2955.2516863226,2956.5936552,NaN,NaN,0,NaN,0.534812200000033
SX103,prp,0,9,15,letter_07,false_font_13,non-target,letter,left,letter_11,1,1.66666666666667,0.466,1.466,offset,1000,41,2956.60165104195,NaN,0,cr,2,2958.0677417,1000,1,2958.4998632,1000,0,2957.60168270324,2958.60161599356,2960.2601698,NaN,NaN,0,NaN,0.432121499999994
SX103,prp,0,9,16,letter_07,false_font_13,irrelevant,face,center,face_05,1.5,0.85,0.466,0.466,onset,1100,75,2960.2682400226,NaN,0,cr,1,2960.7343268,1100,1,2961.2120022,1100,0,2961.7681993226,2962.26819037743,2963.1099593,NaN,NaN,0,NaN,0.477675399999953
SX103,prp,0,9,17,letter_07,false_font_13,irrelevant,object,left,object_20,0.5,1.2,0.232,0.232,onset,1100,230,2963.11820859679,NaN,0,cr,1,2963.3504495,1100,1,2963.7814855,1100,0,2963.61814884195,2965.11812378711,2966.3100505,NaN,NaN,0,NaN,0.431035999999949
SX103,prp,0,9,18,letter_07,false_font_13,irrelevant,face,left,face_10,1,0.766666666666667,0,1,offset,1100,100,2966.31810019679,NaN,0,cr,1,2967.3190827,1100,1,2967.7700569,1100,0,2967.31807309356,2968.31805263872,2969.0764911,NaN,NaN,0,NaN,0.450974200000019
SX103,prp,0,9,19,letter_07,false_font_13,irrelevant,face,right,face_03,1,0.766666666666667,0.232,0.232,onset,1100,113,2969.08468229679,NaN,0,cr,1,2969.316787,1100,1,2969.7899026,1100,0,2970.08466270324,2971.08464345808,2971.8431803,NaN,NaN,0,NaN,0.473115599999801
SX103,prp,0,9,20,letter_07,false_font_13,irrelevant,face,right,face_12,0.5,1.18333333333333,0.116,0.616,offset,1000,122,2971.85129687743,NaN,0,cr,2,2972.4673979,1000,1,2973.0675319,1000,0,2972.35126799679,2973.85124014195,2975.0264889,NaN,NaN,0,NaN,0.600134000000253
SX103,prp,0,9,21,letter_07,false_font_13,non-target,letter,center,letter_10,0.5,0.85,0.466,0.466,onset,1100,20,2975.03454489679,2977.7715103,1,fa,1,2975.5006665,0,NaN,NaN,1,0,2975.53452854195,2977.03450014195,2977.8762381,NaN,NaN,0,2.7369654032068,NaN
SX103,prp,0,9,22,letter_07,false_font_13,non-target,letter,left,letter_16,1.5,1.3,0.232,0.232,onset,1000,46,2977.88446899679,NaN,0,cr,2,2978.1167501,0,NaN,NaN,0,0,2979.38443934195,2979.88442729679,2981.1762828,NaN,NaN,0,NaN,NaN
SX103,prp,0,9,23,letter_07,false_font_13,non-target,false_font,center,false_font_16,1,0.833333333333333,0.116,0.116,onset,1000,146,2981.18440269679,2981.9797106,1,fa,2,2981.3005311,1000,1,2982.5569116,1,1000,2982.18438210324,2983.18435329356,2984.0094186,NaN,NaN,0,0.795307903206776,1.25638049999998
SX103,prp,0,9,24,letter_07,false_font_13,irrelevant,object,center,object_09,0.5,1.23333333333333,0.466,0.966,offset,1000,199,2984.01765465163,NaN,0,cr,2,2984.9837539,1000,1,2985.5354748,1000,0,2984.51764844195,2986.01760999679,2987.242684,NaN,NaN,0,NaN,0.551720899999964
SX103,prp,0,9,25,letter_07,false_font_13,irrelevant,object,center,object_11,1.5,1.15,0.232,1.732,offset,1100,201,2987.25091394195,NaN,0,cr,1,2988.9830499,1100,1,2989.6507772,1100,0,2988.75092619679,2989.25086598711,2990.3927972,NaN,NaN,0,NaN,0.667727300000024
SX103,prp,0,9,26,letter_07,false_font_13,non-target,letter,right,letter_03,0.5,1.63333333333333,0.466,0.466,onset,1100,53,2990.40083767743,NaN,0,cr,1,2990.8670189,1100,1,2991.6664259,1100,0,2990.90083064195,2992.40079189679,2994.026057,NaN,NaN,0,NaN,0.799406999999974
SX103,prp,0,9,27,letter_07,false_font_13,non-target,letter,center,letter_09,1.5,0.95,0.232,0.232,onset,1100,19,2994.03414296776,NaN,0,cr,1,2994.2661999,1100,1,2994.8388544,1100,0,2995.53405518711,2996.03403928711,2996.9758702,NaN,NaN,0,NaN,0.572654499999771
SX103,prp,0,9,28,letter_07,false_font_13,irrelevant,face,left,face_14,1,0.95,0.116,0.116,onset,1000,104,2996.98405924195,NaN,0,cr,2,2997.100398,1000,1,2997.6760043,1000,0,2997.9839922226,2998.98402534195,2999.9259175,NaN,NaN,0,NaN,0.57560629999989
SX103,prp,0,9,29,letter_07,false_font_13,non-target,false_font,left,false_font_01,1.5,0.816666666666667,0,0,onset,1000,151,2999.93394390647,NaN,0,cr,2,2999.9350111,1000,1,3000.5044343,1000,0,3001.43390823227,3001.93390508711,3002.7423364,NaN,NaN,0,NaN,0.569423200000074
SX103,prp,0,9,30,letter_07,false_font_13,non-target,letter,right,letter_04,1,1.65,0.466,0.466,onset,1000,54,3002.75055024195,NaN,0,cr,2,3003.2166253,1000,1,3003.6899337,1000,0,3003.75052003227,3004.75050019679,3006.3924268,NaN,NaN,0,NaN,0.473308399999951
SX103,prp,0,9,31,letter_07,false_font_13,irrelevant,face,center,face_04,0.5,1.01666666666667,0.116,0.116,onset,1000,74,3006.40046654195,NaN,0,cr,2,3006.5166813,1000,1,3007.0194485,1000,0,3006.90044449679,3008.40044889679,3009.4090382,NaN,NaN,0,NaN,0.502767200000108
SX103,prp,0,9,32,letter_07,false_font_13,irrelevant,object,right,object_02,1.5,1.25,0,1.5,offset,1000,232,3009.4170579484,NaN,0,cr,2,3010.9182108,1000,1,3011.45783,1000,0,3010.91702048711,3011.41700389679,3012.6588557,NaN,NaN,0,NaN,0.539619199999834
SX103,prp,0,9,33,letter_07,false_font_13,non-target,letter,left,letter_13,1,1.01666666666667,0.116,0.116,onset,1100,43,3012.66697481615,NaN,0,cr,1,3012.7830802,1100,1,3013.2678452,1100,0,3013.66696027743,3014.66692706131,3015.6755023,NaN,NaN,0,NaN,0.484765000000152
SX103,prp,0,9,34,letter_07,false_font_13,non-target,letter,center,letter_01,1,1.21666666666667,0.466,0.466,onset,1000,11,3015.6835815484,NaN,0,cr,2,3016.1496369,1000,1,3016.7349085,1000,0,3016.68355280324,3017.68352750324,3018.8919299,NaN,NaN,0,NaN,0.585271599999942
SX103,prp,0,10,1,letter_08,false_font_06,non-target,letter,center,letter_11,1.5,1.55,0.466,1.966,offset,1000,21,3036.59976937099,NaN,0,cr,2,3038.5659273,0,NaN,NaN,0,0,3038.09970258711,3038.59970360647,3040.1415693,NaN,NaN,3024.98335887743,NaN,NaN
SX103,prp,0,10,2,letter_08,false_font_06,irrelevant,face,right,face_15,1,1.93333333333333,0.116,0.116,onset,1100,125,3040.14964575163,NaN,0,cr,1,3040.2658945,0,NaN,NaN,0,0,3041.1496333226,3042.14961089679,3044.0747628,NaN,NaN,0,NaN,NaN
SX103,prp,0,10,3,letter_08,false_font_06,irrelevant,face,right,face_07,1.5,1.03333333333333,0.466,1.966,offset,1000,117,3044.08297654195,NaN,0,cr,2,3046.0492258,1000,1,3046.59584,1000,0,3045.58286459679,3046.08288914195,3047.1080448,NaN,NaN,0,NaN,0.546614200000022
SX103,prp,0,10,4,letter_08,false_font_06,non-target,false_font,center,false_font_16,0.5,0.75,0.466,0.966,offset,1100,146,3047.11615732259,NaN,0,cr,1,3048.0822315,1100,1,3048.5660121,1100,0,3047.61614645163,3049.11610808711,3049.8579791,NaN,NaN,0,NaN,0.483780600000046
SX103,prp,0,10,5,letter_08,false_font_06,non-target,false_font,right,false_font_16,0.5,1.81666666666667,0.232,0.732,offset,1100,186,3049.86613414195,NaN,0,cr,1,3050.5982235,1100,1,3051.0413605,1100,0,3050.36607788711,3051.86604628711,3053.6746897,NaN,NaN,0,NaN,0.443136999999751
SX103,prp,0,10,6,letter_08,false_font_06,irrelevant,face,center,face_13,0.5,0.816666666666667,0.466,0.466,onset,1000,83,3053.68266969679,NaN,0,cr,2,3054.1487649,1000,1,3054.8694337,1000,0,3054.18265717743,3055.68266314195,3056.4911257,NaN,NaN,0,NaN,0.720668800000112
SX103,prp,0,10,7,letter_08,false_font_06,irrelevant,object,center,object_18,0.5,1.23333333333333,0.466,0.466,onset,1000,208,3056.49931338711,NaN,0,cr,2,3056.9654485,1000,1,3057.415965,1000,0,3056.99929858711,3058.49921764195,3059.7244524,NaN,NaN,0,NaN,0.450516500000049
SX103,prp,0,10,8,letter_08,false_font_06,irrelevant,object,center,object_12,1.5,0.866666666666667,0.466,0.466,onset,1100,202,3059.73256414195,NaN,0,cr,1,3060.1988112,1100,1,3060.6878962,1100,0,3061.23248378711,3061.73252638711,3062.5910613,NaN,NaN,0,NaN,0.489085000000159
SX103,prp,0,10,9,letter_08,false_font_06,irrelevant,face,right,face_19,1,0.983333333333333,0,0,onset,1100,129,3062.59911348711,NaN,0,cr,1,3062.600159,1100,1,3063.2248627,1100,0,3063.59909400324,3064.59907199356,3065.5741999,NaN,NaN,0,NaN,0.624703699999827
SX103,prp,0,10,10,letter_08,false_font_06,non-target,letter,right,letter_07,0.5,1.51666666666667,0.116,0.116,onset,1000,57,3065.58238766776,NaN,0,cr,2,3065.6985696,1000,1,3066.8339335,1000,0,3066.08237427743,3067.58232793227,3069.0909431,NaN,NaN,0,NaN,1.1353638999999
SX103,prp,0,10,11,letter_08,false_font_06,non-target,letter,center,letter_10,1.5,0.833333333333333,0.232,1.732,offset,1000,20,3069.09897026776,NaN,0,cr,2,3070.831076,1000,1,3071.3447734,1000,0,3070.59895649679,3071.09896548711,3071.9240701,NaN,NaN,0,NaN,0.513697400000183
SX103,prp,0,10,12,letter_08,false_font_06,target,false_font,center,false_font_06,1.5,0.966666666666667,0.466,1.966,offset,1000,136,3071.93223048711,3072.7728532,1,hit,2,3073.8985512,1000,1,3074.5244098,1,1000,3073.43219083227,3073.93218218711,3074.890591,NaN,NaN,0,0.840622712886216,0.625858599999901
SX103,prp,0,10,13,letter_08,false_font_06,non-target,false_font,left,false_font_18,1.5,1.66666666666667,0.466,0.466,onset,1000,168,3074.89881928711,NaN,0,cr,2,3075.3649892,1000,1,3075.9338819,1000,0,3076.39878658711,3076.89882169679,3078.5573227,NaN,NaN,0,NaN,0.568892700000106
SX103,prp,0,10,14,letter_08,false_font_06,irrelevant,object,center,object_03,1.5,0.916666666666667,0.466,1.966,offset,1000,193,3078.56540623227,NaN,0,cr,2,3080.5315357,1000,1,3081.3630635,1000,0,3080.06537018711,3080.56534589679,3081.4738107,NaN,NaN,0,NaN,0.831527800000003
SX103,prp,0,10,15,letter_08,false_font_06,non-target,letter,right,letter_18,1,0.8,0.232,0.232,onset,1100,68,3081.48205475808,NaN,0,cr,1,3081.7143331,1100,1,3082.2603849,1100,0,3082.48202903872,3083.48194174195,3084.2738927,NaN,NaN,0,NaN,0.546051799999987
SX103,prp,0,10,16,letter_08,false_font_06,irrelevant,face,left,face_13,0.5,0.9,0.232,0.732,offset,1000,103,3084.28192680647,NaN,0,cr,2,3085.0141076,1000,1,3085.4994087,1000,0,3084.78191345163,3086.28187826131,3087.173617,NaN,NaN,0,NaN,0.485301100000015
SX103,prp,0,10,17,letter_08,false_font_06,non-target,letter,center,letter_03,1,1.6,0.466,1.466,offset,1100,13,3087.18185969679,NaN,0,cr,1,3088.6480385,1100,1,3089.3237942,1100,0,3088.18183775808,3089.18182209356,3090.7735431,NaN,NaN,0,NaN,0.675755700000082
SX103,prp,0,10,18,letter_08,false_font_06,non-target,letter,center,letter_20,0.5,1.38333333333333,0.232,0.232,onset,1000,30,3090.78177844195,NaN,0,cr,2,3091.0139883,1000,1,3091.7336972,1000,0,3091.28175178711,3092.78177303227,3094.1568348,NaN,NaN,0,NaN,0.719708899999659
SX103,prp,0,10,19,letter_08,false_font_06,non-target,letter,right,letter_03,1,0.7,0.232,1.232,offset,1100,53,3094.16502669679,NaN,0,cr,1,3095.3972574,1100,1,3095.8334755,1100,0,3095.16500308711,3096.16498098711,3096.8567326,NaN,NaN,0,NaN,0.436218100000133
SX103,prp,0,10,20,letter_08,false_font_06,irrelevant,object,left,object_05,1,1.1,0.116,0.116,onset,1000,215,3096.86496833227,NaN,0,cr,2,3096.9810851,1000,1,3097.52132,1000,0,3097.86493304195,3098.86492229679,3099.956788,NaN,NaN,0,NaN,0.540234899999632
SX103,prp,0,10,21,letter_08,false_font_06,target,letter,left,letter_08,1,1.51666666666667,0.466,0.466,onset,1000,38,3099.96488355163,3100.5203328,1,hit,2,3100.4310665,1000,1,3101.2264413,1,1000,3100.96486517743,3101.96483710324,3103.4732243,NaN,NaN,0,0.555449248366585,0.795374799999991
SX103,prp,0,10,22,letter_08,false_font_06,irrelevant,face,left,face_06,1,1.23333333333333,0.116,1.116,offset,1100,96,3103.48147134195,NaN,0,cr,1,3104.5975979,1100,1,3105.3113917,1100,0,3104.48144055163,3105.48143451292,3106.7066388,NaN,NaN,0,NaN,0.713793800000076
SX103,prp,0,10,23,letter_08,false_font_06,irrelevant,face,center,face_01,0.5,1.5,0,0,onset,1000,71,3106.71472458711,NaN,0,cr,2,3106.7157759,1000,1,3107.2728646,1000,0,3107.21472045163,3108.71468899679,3110.2064718,NaN,NaN,0,NaN,0.557088699999895
SX103,prp,0,10,24,letter_08,false_font_06,non-target,false_font,right,false_font_19,1.5,1.31666666666667,0.466,1.966,offset,1000,189,3110.21464784195,NaN,0,cr,2,3112.1807076,1000,1,3112.7428629,1000,0,3111.71467188711,3112.21459873227,3113.5229896,NaN,NaN,0,NaN,0.562155300000086
SX103,prp,0,10,25,letter_08,false_font_06,non-target,letter,left,letter_06,1,1.1,0.466,0.466,onset,1100,36,3113.53122268711,NaN,0,cr,1,3113.9973258,1100,1,3114.4483177,1100,0,3114.53119765163,3115.53117045163,3116.6230899,NaN,NaN,0,NaN,0.45099190000019
SX103,prp,0,10,26,letter_08,false_font_06,irrelevant,object,center,object_03,1,0.733333333333333,0,1,offset,1000,193,3116.63120724195,NaN,0,cr,2,3117.6321354,1000,1,3118.1506483,1000,0,3117.6311327484,3118.63111803872,3119.356332,NaN,NaN,0,NaN,0.518512899999678
SX103,prp,0,10,27,letter_08,false_font_06,non-target,letter,center,letter_16,1,0.783333333333333,0.232,1.232,offset,1000,26,3119.36443051292,NaN,0,cr,2,3120.5965345,1000,1,3120.9826417,1000,0,3120.36438780647,3121.36437229679,3122.1394769,NaN,NaN,0,NaN,0.386107199999969
SX103,prp,0,10,28,letter_08,false_font_06,irrelevant,object,left,object_15,1.5,1.55,0,1.5,offset,1100,225,3122.14776604195,NaN,0,cr,1,3123.6488224,1100,1,3124.1153631,1100,0,3123.64765784195,3124.14764174195,3125.6894694,NaN,NaN,0,NaN,0.466540700000223
SX103,prp,0,10,29,letter_08,false_font_06,irrelevant,object,right,object_09,0.5,1.81666666666667,0.466,0.966,offset,1100,239,3125.69761249679,NaN,0,cr,1,3126.663857,1100,1,3127.1466308,1100,0,3126.19758993227,3127.69754774195,3129.5061312,NaN,NaN,0,NaN,0.482773799999904
SX103,prp,0,10,30,letter_08,false_font_06,non-target,false_font,center,false_font_03,1.5,1.53333333333333,0.466,0.466,onset,1000,133,3129.51423451292,NaN,0,cr,2,3129.9802832,1000,1,3130.5633263,1000,0,3131.01413904195,3131.51412575163,3133.0393154,NaN,NaN,0,NaN,0.583043099999941
SX103,prp,0,10,31,letter_08,false_font_06,target,letter,left,letter_08,0.5,1.3,0,0.5,offset,1000,38,3133.04746995163,3134.1517534,1,hit,2,3133.5485988,1000,1,3134.6527187,1,1000,3133.54741928711,3135.04741836131,3136.3391536,NaN,NaN,0,1.10428344836691,1.10411990000011
SX103,prp,0,10,32,letter_08,false_font_06,irrelevant,object,center,object_07,1,1.58333333333333,0.116,0.116,onset,1100,197,3136.34734664195,NaN,0,cr,1,3136.4635685,1100,1,3137.1573018,1100,0,3137.34732860647,3138.34735505808,3139.9224875,NaN,NaN,0,NaN,0.693733300000076
SX103,prp,0,10,33,letter_08,false_font_06,irrelevant,face,center,face_15,1.5,1.1,0.116,1.616,offset,1100,85,3139.93059169679,NaN,0,cr,1,3141.5467909,1100,1,3142.015708,1100,0,3141.43056603227,3141.93054378711,3143.0223993,NaN,NaN,0,NaN,0.468917099999999
SX103,prp,0,10,34,letter_08,false_font_06,non-target,letter,center,letter_19,1.5,1.41666666666667,0.116,1.616,offset,1100,29,3143.03052164195,NaN,0,cr,1,3144.6466768,1100,1,3145.1083193,1100,0,3144.53048714195,3145.03057123227,3146.4390119,NaN,NaN,0,NaN,0.461642499999925
SX103,prp,0,10,35,letter_08,false_font_06,non-target,false_font,center,false_font_10,1.5,1.81666666666667,0.466,1.966,offset,1000,140,3146.44711118711,NaN,0,cr,2,3148.4132019,1000,1,3149.0168526,1000,0,3147.94706929679,3148.44705649679,3150.2555212,NaN,NaN,0,NaN,0.603650700000344
SX103,prp,0,11,1,face_14,object_11,irrelevant,letter,left,letter_17,1.5,0.85,0.116,1.616,offset,1100,47,3175.01309437743,NaN,0,cr,1,3176.6292143,1100,1,3177.5339197,1100,0,3176.51304923227,3177.01305259679,3177.8549495,NaN,NaN,3156.48020207743,NaN,0.904705399999784
SX103,prp,0,11,2,face_14,object_11,irrelevant,false_font,right,false_font_10,1,0.766666666666667,0.466,0.466,onset,1100,180,3177.86301633227,NaN,0,cr,1,3178.3292377,1100,1,3178.8245764,1100,0,3178.86305483227,3179.86298038711,3180.6215246,NaN,NaN,0,NaN,0.495338700000048
SX103,prp,0,11,3,face_14,object_11,non-target,face,right,face_11,1.5,0.783333333333333,0.466,1.966,offset,1100,121,3180.62966938711,NaN,0,cr,1,3182.5958867,1100,1,3183.1832958,1100,0,3182.12959069679,3182.62957384195,3183.4048561,NaN,NaN,0,NaN,0.587409100000059
SX103,prp,0,11,4,face_14,object_11,target,object,right,object_11,1.5,1.03333333333333,0.466,1.966,offset,1100,241,3183.41288995163,3184.2482546,1,hit,1,3185.3792425,1100,1,3185.8898113,1,1100,3184.91285993227,3185.41283873227,3186.4379006,NaN,NaN,0,0.835364648366976,0.510568799999874
SX103,prp,0,11,5,face_14,object_11,irrelevant,false_font,right,false_font_07,0.5,1.1,0,0,onset,1100,177,3186.44618531292,NaN,0,cr,1,3186.4471144,1100,1,3187.0357629,1100,0,3186.94613575163,3188.44610009679,3189.5379433,NaN,NaN,0,NaN,0.58864850000009
SX103,prp,0,11,6,face_14,object_11,irrelevant,false_font,left,false_font_05,1.5,1.03333333333333,0.466,0.466,onset,1000,155,3189.54606765163,NaN,0,cr,2,3190.0121764,1000,1,3190.6236296,1000,0,3191.04603450647,3191.54602838711,3192.5712282,NaN,NaN,0,NaN,0.611453200000142
SX103,prp,0,11,7,face_14,object_11,non-target,object,right,object_01,1,0.766666666666667,0,0,onset,1000,231,3192.57933844195,NaN,0,cr,2,3192.5803534,1000,1,3193.1397398,1000,0,3193.57932259356,3194.57928920324,3195.3377629,NaN,NaN,0,NaN,0.559386399999767
SX103,prp,0,11,8,face_14,object_11,non-target,object,left,object_14,1,1.05,0.232,0.232,onset,1000,224,3195.34593268711,NaN,0,cr,2,3195.5780967,1000,1,3195.9987625,1000,0,3196.34590295163,3197.34589010324,3198.3876675,NaN,NaN,0,NaN,0.420665799999824
SX103,prp,0,11,9,face_14,object_11,non-target,face,right,face_05,1.5,1.1,0.232,1.732,offset,1000,115,3198.39586019679,NaN,0,cr,2,3200.1279923,1000,1,3200.874794,1000,0,3199.89582769679,3200.39581105163,3201.4877568,NaN,NaN,0,NaN,0.746801699999651
SX103,prp,0,11,10,face_14,object_11,irrelevant,letter,right,letter_09,0.5,1.01666666666667,0.466,0.966,offset,1000,59,3201.49579044195,NaN,0,cr,2,3202.4618312,1000,1,3203.0744013,1000,0,3201.99578124195,3203.49574547743,3204.5042346,NaN,NaN,0,NaN,0.612570100000084
SX103,prp,0,11,11,face_14,object_11,non-target,face,center,face_10,0.5,0.75,0.232,0.232,onset,1100,80,3204.51237739679,NaN,0,cr,1,3204.7445539,1100,1,3205.2252765,1100,0,3205.01236824195,3206.51237633227,3207.2541887,NaN,NaN,0,NaN,0.480722599999808
SX103,prp,0,11,12,face_14,object_11,irrelevant,false_font,left,false_font_17,1,1.35,0.232,0.232,onset,1000,167,3207.26232028711,NaN,0,cr,2,3207.4945024,1000,1,3208.0425223,1000,0,3208.2623251484,3209.26226900324,3210.6041876,NaN,NaN,0,NaN,0.548019900000327
SX103,prp,0,11,13,face_14,object_11,non-target,face,left,face_15,1,1.3,0.116,0.116,onset,1100,105,3210.61223894195,NaN,0,cr,1,3210.7284619,1100,1,3211.2902697,1100,0,3211.61226168711,3212.61218469356,3213.9041339,NaN,NaN,0,NaN,0.561807799999769
SX103,prp,0,11,14,face_14,object_11,non-target,object,right,object_09,1,0.716666666666667,0.116,1.116,offset,1000,239,3213.91215169679,NaN,0,cr,2,3215.0282269,1000,1,3215.552747,1000,0,3214.9121364484,3215.91210089679,3216.6206731,NaN,NaN,0,NaN,0.524520100000245
SX103,prp,0,11,15,face_14,object_11,non-target,object,right,object_20,1,1.31666666666667,0.466,1.466,offset,1100,250,3216.6287575226,NaN,0,cr,1,3218.0948441,1100,1,3218.7875759,1100,0,3217.62872359679,3218.62870719679,3219.9373064,NaN,NaN,0,NaN,0.692731799999819
SX103,prp,0,11,16,face_14,object_11,irrelevant,false_font,center,false_font_09,1,1.15,0,0,onset,1000,139,3219.94533758711,NaN,0,cr,2,3219.9463953,1000,1,3220.6384998,1000,0,3220.9453460484,3221.94529820324,3223.0871614,NaN,NaN,0,NaN,0.692104499999914
SX103,prp,0,11,17,face_14,object_11,target,object,center,object_11,0.5,1.9,0.116,0.616,offset,1000,201,3223.09525402583,3223.6945951,1,hit,2,3223.7113953,1000,1,3224.1907677,1,1000,3223.59525338711,3225.09522264195,3226.9869424,NaN,NaN,0,0.599341074168478,0.479372400000102
SX103,prp,0,11,18,face_14,object_11,non-target,face,center,face_17,0.5,1.68333333333333,0,0,onset,1000,87,3226.99516219679,NaN,0,cr,2,3226.9962583,1000,1,3227.6786671,1000,0,3227.49516249679,3228.99512373227,3230.6701744,NaN,NaN,0,NaN,0.682408799999848
