sub_id,task,is_practice,block,trial,target_01,target_02,task_relevance,category,orientation,identity,duration,stim_jit,SOA,onset_SOA,SOA_lock,pitch,texture,vis_stim_time,time_of_resp_vis,has_response_vis,trial_response_vis,aud_stim_buff,aud_stim_time,aud_resp,trial_accuracy_aud,time_of_resp_aud,trial_first_button_press,trial_second_button_press,fix_time,JitOnset,trial_end,wrong_key,wrong_key_timestemp,TargetScreenOnset,RT_vis,RT_aud
SX102,prp,0,1,1,face_13,object_09,irrelevant,letter,center,letter_14,0.5,1.63333333333333,0,0,onset,1000,24,2369.46582402965,NaN,0,cr,2,2369.4695292,1100,0,2370.7380095,1100,0,2369.96581848212,2371.46578058706,2373.0911322,NaN,NaN,2364.91592740189,NaN,1.26848029999974
SX102,prp,0,1,2,face_13,object_09,irrelevant,letter,right,letter_09,1.5,1.85,0,1.5,offset,1100,59,2373.09906463953,NaN,0,cr,1,2374.6001445,1100,1,2375.0690086,1100,0,2374.59904866235,2375.09903013953,2376.9409412,NaN,NaN,0,NaN,0.468864099999792
SX102,prp,0,1,3,face_13,object_09,irrelevant,false_font,center,false_font_19,1.5,1.46666666666667,0.232,0.232,onset,1100,149,2376.94897783953,NaN,0,cr,1,2377.1810573,1100,1,2377.5950261,1100,0,2378.44894422471,2378.94892913953,2380.4075154,NaN,NaN,0,NaN,0.413968800000021
SX102,prp,0,1,4,face_13,object_09,irrelevant,letter,right,letter_02,1,1.91666666666667,0.116,1.116,offset,1100,52,2380.41555703953,NaN,0,cr,1,2381.5316513,1100,1,2382.0992919,1100,0,2381.41553508212,2382.41551263459,2384.3239636,NaN,NaN,0,NaN,0.567640600000232
SX102,prp,0,1,5,face_13,object_09,irrelevant,letter,left,letter_14,1.5,1.36666666666667,0.466,0.466,onset,1000,44,2384.33212896424,NaN,0,cr,2,2384.7982105,1000,1,2385.3010049,1000,0,2385.83210311482,2386.33208997224,2387.6906053,NaN,NaN,0,NaN,0.502794399999857
SX102,prp,0,1,6,face_13,object_09,irrelevant,letter,left,letter_05,0.5,0.85,0.116,0.616,offset,1100,35,2387.69873554447,NaN,0,cr,1,2388.314921,1100,1,2388.7242847,1100,0,2388.19876093953,2389.69867908212,2390.5406442,NaN,NaN,0,NaN,0.409363700000085
SX102,prp,0,1,7,face_13,object_09,non-target,object,left,object_16,1,0.816666666666667,0.466,0.466,onset,1100,226,2390.54866132471,NaN,0,cr,1,2391.0147576,1100,1,2391.8429668,1100,0,2391.54861343648,2392.54861477224,2393.3570744,NaN,NaN,0,NaN,0.828209199999947
SX102,prp,0,1,8,face_13,object_09,non-target,object,left,object_06,1.5,1.03333333333333,0,1.5,offset,1100,216,2393.36525174942,NaN,0,cr,1,2394.8663312,1100,1,2395.2724163,1100,0,2394.86522497718,2395.36519555436,2396.3902924,NaN,NaN,0,NaN,0.406085099999927
SX102,prp,0,1,9,face_13,object_09,non-target,face,right,face_11,1,1.66666666666667,0,0,onset,1100,121,2396.39850131671,2397.3379855,1,fa,1,2396.3996193,1000,0,2399.7762146,1,1000,2397.39848116918,2398.39846622965,2400.0570924,NaN,NaN,0,0.939484183287732,3.37659530000019
SX102,prp,0,1,10,face_13,object_09,irrelevant,false_font,right,false_font_08,1.5,1.21666666666667,0.116,1.616,offset,1100,178,2400.06509642471,NaN,0,cr,1,2401.6812404,1000,0,2402.9232409,1000,0,2401.56506528212,2402.06503809695,2403.2735152,NaN,NaN,0,NaN,1.2420004999999
SX102,prp,0,1,11,face_13,object_09,non-target,object,left,object_03,1.5,1.33333333333333,0.232,1.732,offset,1100,213,2403.28169162965,NaN,0,cr,1,2405.0137891,1000,0,2405.8864592,1000,0,2404.78165150494,2405.28164328212,2406.6068164,NaN,NaN,0,NaN,0.87267010000005
SX102,prp,0,1,12,face_13,object_09,non-target,face,center,face_18,0.5,1.28333333333333,0,0.5,offset,1000,88,2406.61492635436,2407.5782614,1,fa,2,2407.1158927,1000,1,2408.13896,1,1000,2407.11492342471,2408.61490122471,2409.8899434,NaN,NaN,0,0.963335045642452,1.02306730000009
SX102,prp,0,1,13,face_13,object_09,non-target,object,center,object_18,1,1.26666666666667,0.466,1.466,offset,1000,208,2409.89819287718,NaN,0,cr,2,2411.3642272,1000,1,2411.6942339,1000,0,2410.89817232965,2411.89814452471,2413.156617,NaN,NaN,0,NaN,0.330006700000013
SX102,prp,0,1,14,face_13,object_09,non-target,object,right,object_07,1,1.76666666666667,0.232,1.232,offset,1000,237,2413.16478367718,2416.5000004,1,fa,2,2414.3968365,1100,0,2415.4553165,1100,1,2414.1647691673,2415.16473529695,2416.92314,NaN,NaN,0,3.33521672282086,1.05848000000015
SX102,prp,0,1,15,face_13,object_09,irrelevant,letter,center,letter_13,1,1.2,0,0,onset,1100,23,2416.93136170988,NaN,0,cr,1,2416.9325323,0,NaN,NaN,0,0,2417.93133260189,2418.93131668706,2420.1230697,NaN,NaN,0,NaN,NaN
SX102,prp,0,1,16,face_13,object_09,non-target,face,center,face_14,1.5,1.78333333333333,0.232,0.232,onset,1000,84,2420.13128842965,NaN,0,cr,2,2420.3633937,1000,1,2422.7592605,1000,0,2421.63124432965,2422.13124067224,2423.9064523,NaN,NaN,0,NaN,2.39586680000002
SX102,prp,0,1,17,face_13,object_09,target,face,left,face_13,1.5,0.95,0.116,1.616,offset,1000,103,2423.91452282471,2424.6803399,1,hit,2,2425.5307021,1000,1,2426.0509898,1,1000,2425.41449531977,2425.91448502471,2426.8561966,NaN,NaN,0,0.765817075291579,0.520287700000154
SX102,prp,0,1,18,face_13,object_09,non-target,object,center,object_11,0.5,0.883333333333333,0.466,0.966,offset,1100,201,2426.86442426801,NaN,0,cr,1,2427.8306313,1100,1,2428.3590055,1100,0,2427.36444082471,2428.86440222471,2429.739526,NaN,NaN,0,NaN,0.528374200000144
SX102,prp,0,1,19,face_13,object_09,non-target,object,center,object_10,1.5,1.7,0.466,1.966,offset,1000,200,2429.747721792,NaN,0,cr,2,2431.7138946,1000,1,2432.1072934,1000,0,2431.24767788706,2431.74767592471,2433.4394664,NaN,NaN,0,NaN,0.393398799999886
SX102,prp,0,1,20,face_13,object_09,irrelevant,letter,left,letter_03,1,1.31666666666667,0.232,0.232,onset,1100,33,2433.44763207718,NaN,0,cr,1,2433.6797408,1100,1,2434.6093678,1100,0,2434.44761197224,2435.44757544447,2436.7559896,NaN,NaN,0,NaN,0.929626999999982
SX102,prp,0,1,21,face_13,object_09,non-target,face,left,face_04,0.5,1.05,0.232,0.232,onset,1100,94,2436.764219392,NaN,0,cr,1,2436.9964755,1100,1,2437.9122887,1100,0,2437.26421323459,2438.76416953953,2439.8058948,NaN,NaN,0,NaN,0.915813199999775
SX102,prp,0,1,22,face_13,object_09,irrelevant,letter,left,letter_06,1.5,0.9,0,1.5,offset,1100,36,2439.81414457718,NaN,0,cr,1,2441.3151525,1100,1,2442.1634798,1100,0,2441.31411178212,2441.81410297224,2442.7059815,NaN,NaN,0,NaN,0.848327300000165
SX102,prp,0,1,23,face_13,object_09,irrelevant,letter,center,letter_18,0.5,2,0.466,0.966,offset,1000,28,2442.71408379695,NaN,0,cr,2,2443.6803132,1000,1,2444.2020774,1000,0,2443.21406837718,2444.71401945436,2446.7059496,NaN,NaN,0,NaN,0.52176419999978
SX102,prp,0,1,24,face_13,object_09,target,object,left,object_09,1,1.11666666666667,0.116,1.116,offset,1100,219,2446.71397844447,2448.45113,1,hit,1,2447.8302302,0,NaN,NaN,1,0,2447.71393302354,2448.713926992,2449.8225005,NaN,NaN,0,1.73715155552554,NaN
SX102,prp,0,1,25,face_13,object_09,non-target,object,center,object_07,1.5,0.766666666666667,0.232,0.232,onset,1100,197,2449.83057568706,2452.2162796,1,fa,1,2450.0628462,1100,1,2450.1789392,1100,1,2451.33053766424,2451.83053321977,2452.588951,NaN,NaN,0,2.38570391293752,0.116093000000092
SX102,prp,0,1,26,face_13,object_09,non-target,object,center,object_03,0.5,1.01666666666667,0.466,0.466,onset,1100,193,2452.59717654942,NaN,0,cr,1,2453.0633871,0,NaN,NaN,0,0,2453.09716837718,2454.59712747718,2455.6055597,NaN,NaN,0,NaN,NaN
SX102,prp,0,1,27,face_13,object_09,irrelevant,false_font,center,false_font_13,1.5,1.03333333333333,0.116,0.116,onset,1000,143,2455.61374122049,NaN,0,cr,2,2455.7299152,1000,1,2456.3092552,1000,0,2457.11374292965,2457.61370307107,2458.6389623,NaN,NaN,0,NaN,0.579339999999775
SX102,prp,0,1,28,face_13,object_09,irrelevant,false_font,right,false_font_18,1.5,1.7,0.116,0.116,onset,1100,188,2458.64703153953,NaN,0,cr,1,2458.7632827,1100,1,2460.4879375,1100,0,2460.14699169695,2460.64698491977,2462.3387704,NaN,NaN,0,NaN,1.72465479999983
SX102,prp,0,1,29,face_13,object_09,non-target,object,left,object_06,1,1.81666666666667,0,0,onset,1000,216,2462.34694842471,NaN,0,cr,2,2462.3479364,1000,1,2462.9661211,1000,0,2463.34691464942,2464.34690491977,2466.1553926,NaN,NaN,0,NaN,0.618184699999802
SX102,prp,0,1,30,face_13,object_09,non-target,face,center,face_02,1,1.18333333333333,0.116,0.116,onset,1000,72,2466.16351490189,NaN,0,cr,2,2466.2797107,1000,1,2466.8873229,1000,0,2467.16350771482,2468.16347976235,2469.3387019,NaN,NaN,0,NaN,0.607612199999949
SX102,prp,0,1,31,face_13,object_09,target,object,center,object_09,1.5,1.98333333333333,0.116,0.116,onset,1000,199,2469.34677643459,2470.1379699,1,hit,2,2469.4630599,1000,1,2470.5491916,1,1000,2470.84673820189,2471.34673687224,2473.3217842,NaN,NaN,0,0.791193465408469,1.0861316999999
SX102,prp,0,1,32,face_13,object_09,irrelevant,letter,right,letter_07,1,0.933333333333333,0.232,1.232,offset,1000,57,2473.33000526918,NaN,0,cr,2,2474.562118,1000,1,2474.9359244,1000,0,2474.32999358706,2475.32998332471,2476.2550351,NaN,NaN,0,NaN,0.373806400000376
SX102,prp,0,1,33,face_13,object_09,non-target,object,right,object_15,1.5,1.28333333333333,0.466,0.466,onset,1000,245,2476.26328024447,NaN,0,cr,2,2476.7293308,1000,1,2477.2142695,1000,0,2477.76324301977,2478.26322578706,2479.5385029,NaN,NaN,0,NaN,0.48493869999993
SX102,prp,0,1,34,face_13,object_09,irrelevant,false_font,center,false_font_11,1.5,0.966666666666667,0,0,onset,1000,141,2479.54654037224,NaN,0,cr,2,2479.5473899,1000,1,2479.9859503,1000,0,2481.04649099695,2481.54649267224,2482.5049876,NaN,NaN,0,NaN,0.438560399999915
SX102,prp,0,1,35,face_13,object_09,irrelevant,false_font,center,false_font_04,0.5,1.73333333333333,0.232,0.232,onset,1000,134,2482.51313968706,NaN,0,cr,2,2482.7452876,1000,1,2483.1619205,1000,0,2483.01312747718,2484.51312232471,2486.2381833,NaN,NaN,0,NaN,0.416632899999968
SX102,prp,0,1,36,face_13,object_09,target,object,left,object_09,1,1.36666666666667,0.232,0.232,onset,1000,219,2486.24637457718,2487.0582802,1,hit,2,2486.4784941,1000,1,2487.3805328,1,1000,2487.24636066235,2488.24633382471,2489.6047195,NaN,NaN,0,0.811905622821087,0.902038700000048
SX102,prp,0,2,1,face_11,object_20,irrelevant,false_font,right,false_font_10,1,1.96666666666667,0.466,0.466,onset,1000,180,2528.77873537907,NaN,0,cr,2,2529.2449145,1000,1,2530.2662208,1000,0,2529.77868112965,2530.77865828706,2532.7370874,NaN,NaN,2521.94553252471,NaN,1.02130630000011
SX102,prp,0,2,2,face_11,object_20,non-target,object,center,object_06,1,1.2,0.466,0.466,onset,1100,196,2532.74527245436,NaN,0,cr,1,2533.2113962,1100,1,2533.8809167,1100,0,2533.74524674942,2534.74523601977,2535.9370245,NaN,NaN,0,NaN,0.66952050000009
SX102,prp,0,2,3,face_11,object_20,irrelevant,false_font,right,false_font_05,1,1.28333333333333,0,1,offset,1000,175,2535.94520117224,NaN,0,cr,2,2536.9462025,1000,1,2537.4438733,1000,0,2536.94517767718,2537.94516227224,2539.2202328,NaN,NaN,0,NaN,0.497670800000378
SX102,prp,0,2,4,face_11,object_20,target,object,center,object_20,1.5,0.95,0.466,0.466,onset,1000,210,2539.22844952471,2540.0229331,1,hit,2,2539.6946421,1000,1,2540.4830949,1,1000,2540.72842152471,2541.22840644942,2542.1701692,NaN,NaN,0,0.794483575291906,0.788452800000414
SX102,prp,0,2,5,face_11,object_20,non-target,object,right,object_18,0.5,1.16666666666667,0.232,0.732,offset,1100,248,2542.17839317224,NaN,0,cr,1,2542.9104995,1100,1,2543.2713122,1100,0,2542.67837064942,2544.17833148706,2545.336763,NaN,NaN,0,NaN,0.360812700000224
SX102,prp,0,2,6,face_11,object_20,non-target,object,right,object_14,1.5,1.65,0.116,1.616,offset,1100,244,2545.34497972471,NaN,0,cr,1,2546.9611405,1100,1,2547.4108999,1100,0,2546.84494287224,2547.34492323459,2548.9866882,NaN,NaN,0,NaN,0.449759399999948
SX102,prp,0,2,7,face_11,object_20,non-target,face,left,face_20,0.5,1.05,0.466,0.966,offset,1100,110,2548.99488070189,2549.5682314,1,fa,1,2549.9611161,1100,1,2551.0470225,1,1100,2549.49486748212,2550.99483933953,2552.0365664,NaN,NaN,0,0.573350698113245,1.08590640000011
SX102,prp,0,2,8,face_11,object_20,irrelevant,letter,center,letter_11,1,0.75,0.466,0.466,onset,1000,21,2552.04484522471,NaN,0,cr,2,2552.5111406,1000,1,2552.9942029,1000,0,2553.04479128212,2554.04476667224,2554.7866926,NaN,NaN,0,NaN,0.483062299999801
SX102,prp,0,2,9,face_11,object_20,non-target,object,left,object_19,1,1.31666666666667,0.232,1.232,offset,1100,229,2554.79475582471,NaN,0,cr,1,2556.0269894,1100,1,2556.5431173,1100,0,2555.79482222471,2556.79471007224,2558.103293,NaN,NaN,0,NaN,0.516127900000356
SX102,prp,0,2,10,face_11,object_20,non-target,face,center,face_08,1.5,0.833333333333333,0.466,0.466,onset,1100,78,2558.11133560189,NaN,0,cr,1,2558.5776478,1100,1,2559.2632332,1100,0,2559.61129587718,2560.11134077224,2560.936494,NaN,NaN,0,NaN,0.685585400000036
SX102,prp,0,2,11,face_11,object_20,irrelevant,letter,center,letter_16,1.5,0.783333333333333,0.116,1.616,offset,1100,26,2560.94460134447,NaN,0,cr,1,2562.5606394,1100,1,2562.9298726,1100,0,2562.44455491671,2562.94454160683,2563.719699,NaN,NaN,0,NaN,0.369233200000053
SX102,prp,0,2,12,face_11,object_20,irrelevant,letter,center,letter_18,1.5,1.63333333333333,0.232,0.232,onset,1000,28,2563.72787013459,NaN,0,cr,2,2563.9601121,1000,1,2564.3931115,1000,0,2565.227824992,2565.72781620189,2567.3530988,NaN,NaN,0,NaN,0.432999399999972
SX102,prp,0,2,13,face_11,object_20,non-target,face,center,face_14,1.5,1.15,0,1.5,offset,1000,84,2567.361117492,NaN,0,cr,2,2568.8621336,1000,1,2569.5990908,1000,0,2568.86108641977,2569.36107227718,2570.5029496,NaN,NaN,0,NaN,0.736957199999779
SX102,prp,0,2,14,face_11,object_20,non-target,face,right,face_06,1,1.16666666666667,0.232,0.232,onset,1100,116,2570.51104242965,NaN,0,cr,1,2570.7432001,1100,1,2571.795311,1100,0,2571.51101662471,2572.51098482471,2573.669529,NaN,NaN,0,NaN,1.05211089999966
SX102,prp,0,2,15,face_11,object_20,non-target,object,left,object_02,1.5,0.75,0.116,1.616,offset,1000,212,2573.67762765436,NaN,0,cr,2,2575.2938353,1000,1,2575.817916,1000,0,2575.17758684447,2575.67757508212,2576.4194142,NaN,NaN,0,NaN,0.524080700000013
SX102,prp,0,2,16,face_11,object_20,non-target,face,left,face_08,0.5,1.06666666666667,0.466,0.466,onset,1000,98,2576.427554692,NaN,0,cr,2,2576.8938128,1000,1,2577.2718815,1000,0,2576.92755044447,2578.427506892,2579.4860248,NaN,NaN,0,NaN,0.378068699999858
SX102,prp,0,2,17,face_11,object_20,irrelevant,false_font,left,false_font_20,0.5,0.966666666666667,0.232,0.732,offset,1100,170,2579.4941610673,NaN,0,cr,1,2580.2264105,1100,1,2580.6882019,1100,0,2579.99414304447,2581.49411038706,2582.4526891,NaN,NaN,0,NaN,0.461791400000038
SX102,prp,0,2,18,face_11,object_20,irrelevant,false_font,left,false_font_09,0.5,0.716666666666667,0.232,0.232,onset,1000,159,2582.46072574825,NaN,0,cr,2,2582.6928686,1000,1,2583.1091039,1000,0,2582.96073414447,2584.46068423342,2585.1691623,NaN,NaN,0,NaN,0.416235299999698
SX102,prp,0,2,19,face_11,object_20,non-target,object,left,object_03,0.5,1.2,0.466,0.966,offset,1100,213,2585.1773694593,NaN,0,cr,1,2586.1434995,1100,1,2586.6022862,1100,0,2585.67733314942,2587.17730862471,2588.369052,NaN,NaN,0,NaN,0.458786700000019
SX102,prp,0,2,20,face_11,object_20,irrelevant,letter,right,letter_20,1,0.866666666666667,0,1,offset,1000,70,2588.37728027718,NaN,0,cr,2,2589.3782719,1000,1,2589.8671457,1000,0,2589.37724647718,2590.37722844942,2591.2359057,NaN,NaN,0,NaN,0.488873799999965
SX102,prp,0,2,21,face_11,object_20,target,face,right,face_11,0.5,1.43333333333333,0.116,0.616,offset,1100,121,2591.24387267718,2592.0631033,1,hit,1,2591.8601413,1100,1,2592.9271798,1,1100,2591.74386818212,2593.243826292,2594.6689667,NaN,NaN,0,0.819230622821124,1.06703849999985
SX102,prp,0,2,22,face_11,object_20,irrelevant,letter,center,letter_19,1.5,1.08333333333333,0,1.5,offset,1100,29,2594.67713669695,NaN,0,cr,1,2596.1782469,1100,1,2596.68509,1100,0,2596.17708783953,2596.67707420683,2597.7523251,NaN,NaN,0,NaN,0.506843099999969
SX102,prp,0,2,23,face_11,object_20,non-target,face,left,face_02,0.5,1.51666666666667,0,0.5,offset,1100,92,2597.76038762965,NaN,0,cr,1,2598.2615439,1100,1,2598.8868639,1100,0,2598.26037543953,2599.76033618706,2601.2688155,NaN,NaN,0,NaN,0.625320000000102
SX102,prp,0,2,24,face_11,object_20,irrelevant,letter,left,letter_08,1.5,1.28333333333333,0.116,1.616,offset,1000,38,2601.27697622471,NaN,0,cr,2,2602.8932264,1000,1,2603.3448604,1000,0,2602.77699098212,2603.276920892,2604.5521965,NaN,NaN,0,NaN,0.451634000000013
SX102,prp,0,2,25,face_11,object_20,non-target,object,right,object_16,1.5,1.98333333333333,0.232,1.732,offset,1100,246,2604.56021480189,NaN,0,cr,1,2606.2923702,1100,1,2606.8500171,1100,0,2606.06018880683,2606.56017379695,2608.5353759,NaN,NaN,0,NaN,0.557646900000236
SX102,prp,0,2,26,face_11,object_20,irrelevant,letter,left,letter_12,0.5,1.08333333333333,0.232,0.732,offset,1100,42,2608.54346789695,NaN,0,cr,1,2609.2756469,1100,1,2610.0810218,1100,0,2609.043444292,2610.54342077224,2611.6186005,NaN,NaN,0,NaN,0.805374900000061
SX102,prp,0,2,27,face_11,object_20,non-target,face,right,face_20,1,1.2,0,1,offset,1100,130,2611.62672867718,2612.3829632,1,fa,1,2612.6278768,1100,1,2613.4162994,1,1100,2612.62675268706,2613.62667692471,2614.8184113,NaN,NaN,0,0.75623452282116,0.788422599999649
SX102,prp,0,2,28,face_11,object_20,irrelevant,false_font,right,false_font_09,1.5,1.41666666666667,0.466,1.966,offset,1000,179,2614.82664742965,NaN,0,cr,2,2616.7929756,1000,1,2617.1947885,1000,0,2616.326607192,2616.82658854942,2618.2352148,NaN,NaN,0,NaN,0.401812900000095
SX102,prp,0,2,29,face_11,object_20,irrelevant,false_font,right,false_font_13,1,1.73333333333333,0,1,offset,1100,183,2618.24323533953,NaN,0,cr,1,2619.2443545,1100,1,2620.4651344,1100,0,2619.24320875436,2620.24318468706,2621.9683675,NaN,NaN,0,NaN,1.2207798999998
SX102,prp,0,2,30,face_11,object_20,irrelevant,false_font,right,false_font_05,0.5,0.766666666666667,0.116,0.616,offset,1000,175,2621.97647711977,NaN,0,cr,2,2622.5927319,1000,1,2623.0608261,1000,0,2622.47646888706,2623.97643478706,2624.7348495,NaN,NaN,0,NaN,0.468094199999996
SX102,prp,0,2,31,face_11,object_20,irrelevant,letter,center,letter_06,1,1.26666666666667,0.466,0.466,onset,1100,16,2624.74306859695,NaN,0,cr,1,2625.2091747,1100,1,2625.6248288,1100,0,2625.74305892471,2626.74302533459,2628.001483,NaN,NaN,0,NaN,0.415654100000211
SX102,prp,0,2,32,face_11,object_20,non-target,face,center,face_07,1,0.95,0.466,1.466,offset,1100,77,2628.00966883459,NaN,0,cr,1,2629.4759146,1100,1,2630.0440836,1100,0,2629.00964514942,2630.00961592471,2630.9515348,NaN,NaN,0,NaN,0.568168999999671
SX102,prp,0,2,33,face_11,object_20,irrelevant,letter,right,letter_14,1,0.816666666666667,0.466,1.466,offset,1000,64,2630.959588292,NaN,0,cr,2,2632.4259119,1000,1,2632.844876,1000,0,2631.95957062965,2632.959606092,2633.7681521,NaN,NaN,0,NaN,0.418964100000267
SX102,prp,0,2,34,face_11,object_20,non-target,object,center,object_12,0.5,0.95,0.466,0.466,onset,1000,202,2633.77619577718,NaN,0,cr,2,2634.242408,1000,1,2634.7240152,1000,0,2634.27619497718,2635.77615402965,2636.7180282,NaN,NaN,0,NaN,0.481607199999871
SX102,prp,0,3,1,letter_09,false_font_11,irrelevant,face,left,face_04,1,0.8,0.466,0.466,onset,1100,94,2652.27581453953,NaN,0,cr,1,2652.7420775,1100,1,2653.7084161,1100,0,2653.27571598401,2654.27570985436,2655.0675234,NaN,NaN,2645.02593588212,NaN,0.966338599999744
SX102,prp,0,3,2,letter_09,false_font_11,non-target,letter,left,letter_08,1,0.716666666666667,0.116,1.116,offset,1100,38,2655.07575323459,NaN,0,cr,1,2656.1918154,1100,1,2656.58706,1100,0,2656.07566468212,2657.07564043459,2657.7842174,NaN,NaN,0,NaN,0.395244599999842
SX102,prp,0,3,3,letter_09,false_font_11,non-target,false_font,left,false_font_18,0.5,1.35,0.232,0.232,onset,1000,168,2657.79230152965,NaN,0,cr,2,2658.0245322,1000,1,2658.6378222,1000,0,2658.29228367718,2659.79224714447,2661.1340072,NaN,NaN,0,NaN,0.613289999999779
SX102,prp,0,3,4,letter_09,false_font_11,irrelevant,face,left,face_02,0.5,1.83333333333333,0.116,0.116,onset,1100,92,2661.14222421977,NaN,0,cr,1,2661.2584136,1100,1,2661.9678339,1100,0,2661.64221119695,2663.14217312471,2664.9673878,NaN,NaN,0,NaN,0.709420300000147
SX102,prp,0,3,5,letter_09,false_font_11,non-target,letter,center,letter_16,1.5,1.68333333333333,0,0,onset,1100,26,2664.97546127718,NaN,0,cr,1,2664.9763443,1100,1,2665.8100619,1100,0,2666.475417592,2666.97540394447,2668.6505604,NaN,NaN,0,NaN,0.8337176
SX102,prp,0,3,6,letter_09,false_font_11,irrelevant,object,center,object_15,0.5,0.866666666666667,0,0,onset,1000,205,2668.65875412965,NaN,0,cr,2,2668.6597373,1000,1,2669.2259666,1000,0,2669.15869052965,2670.65866233953,2671.5171304,NaN,NaN,0,NaN,0.566229300000032
SX102,prp,0,3,7,letter_09,false_font_11,irrelevant,object,right,object_11,1.5,1.1,0,1.5,offset,1000,241,2671.52535322471,NaN,0,cr,2,2673.0263762,1000,1,2673.287765,1000,0,2673.02526712471,2673.52524988706,2674.6171712,NaN,NaN,0,NaN,0.261388800000077
SX102,prp,0,3,8,letter_09,false_font_11,irrelevant,object,center,object_07,0.5,1.43333333333333,0.466,0.466,onset,1100,197,2674.62522650189,NaN,0,cr,1,2675.0915888,1100,1,2675.5370653,1100,0,2675.12523167718,2676.62519357718,2678.050358,NaN,NaN,0,NaN,0.445476500000041
SX102,prp,0,3,9,letter_09,false_font_11,irrelevant,object,center,object_15,0.5,0.733333333333333,0.116,0.116,onset,1100,205,2678.05848198212,NaN,0,cr,1,2678.1746761,1100,1,2678.7021244,1100,0,2678.55848282471,2680.05848667224,2680.7836849,NaN,NaN,0,NaN,0.527448299999833
SX102,prp,0,3,10,letter_09,false_font_11,irrelevant,object,right,object_04,0.5,1.75,0.466,0.966,offset,1000,234,2680.791740692,NaN,0,cr,2,2681.7578808,1000,1,2681.9988191,1000,0,2681.29174601977,2682.79169514447,2684.5334287,NaN,NaN,0,NaN,0.24093830000038
SX102,prp,0,3,11,letter_09,false_font_11,non-target,letter,right,letter_20,0.5,0.716666666666667,0,0,onset,1000,70,2684.54166297718,NaN,0,cr,2,2684.5425243,1000,1,2685.247042,1000,0,2685.04166212471,2686.54161601977,2687.250257,NaN,NaN,0,NaN,0.704517699999997
SX102,prp,0,3,12,letter_09,false_font_11,non-target,letter,left,letter_20,1,1.18333333333333,0,0,onset,1000,50,2687.25828461482,NaN,0,cr,2,2687.2591815,1000,1,2687.8130668,1000,0,2688.25824077718,2689.25820523953,2690.4333189,NaN,NaN,0,NaN,0.55388529999982
SX102,prp,0,3,13,letter_09,false_font_11,non-target,letter,left,letter_04,0.5,1.2,0.466,0.966,offset,1100,34,2690.441522092,NaN,0,cr,1,2691.4077263,1100,1,2691.8840951,1100,0,2690.94149843953,2692.44147563459,2693.6333999,NaN,NaN,0,NaN,0.476368800000273
SX102,prp,0,3,14,letter_09,false_font_11,irrelevant,object,center,object_06,1.5,0.716666666666667,0,0,onset,1100,196,2693.64144160988,NaN,0,cr,1,2693.6422617,1100,1,2694.0588147,1100,0,2695.14139930683,2695.64139762471,2696.3499317,NaN,NaN,0,NaN,0.416553000000022
SX102,prp,0,3,15,letter_09,false_font_11,non-target,false_font,right,false_font_09,0.5,1.26666666666667,0,0,onset,1000,179,2696.35804962471,NaN,0,cr,2,2696.3590831,1000,1,2697.0740216,1000,0,2696.85807703953,2698.35799112471,2699.6164012,NaN,NaN,0,NaN,0.714938499999789
SX102,prp,0,3,16,letter_09,false_font_11,irrelevant,face,left,face_09,1,1.18333333333333,0,1,offset,1000,99,2699.62463474942,NaN,0,cr,2,2700.6257136,1000,1,2700.9380175,1000,0,2700.62461014942,2701.62459257224,2702.7997394,NaN,NaN,0,NaN,0.312303900000188
SX102,prp,0,3,17,letter_09,false_font_11,irrelevant,object,left,object_15,1,1.46666666666667,0.232,1.232,offset,1100,225,2702.80788598706,NaN,0,cr,1,2704.0400385,1100,1,2704.4870608,1100,0,2703.807863692,2704.80784248706,2706.2663764,NaN,NaN,0,NaN,0.447022300000299
SX102,prp,0,3,18,letter_09,false_font_11,irrelevant,face,center,face_15,1.5,1.23333333333333,0.232,1.732,offset,1000,85,2706.27446542659,NaN,0,cr,2,2708.0066507,1000,1,2708.4797199,1000,0,2707.77447790189,2708.27443362471,2709.4996039,NaN,NaN,0,NaN,0.473069199999827
SX102,prp,0,3,19,letter_09,false_font_11,target,letter,right,letter_09,0.5,1.85,0.116,0.116,onset,1000,59,2709.50777864447,2710.2248107,1,hit,2,2709.6239237,1000,1,2710.9509055,1,1000,2710.00772392471,2711.50768807718,2713.3494534,NaN,NaN,0,0.717032055525578,1.32698179999988
SX102,prp,0,3,20,letter_09,false_font_11,non-target,false_font,center,false_font_06,0.5,1.43333333333333,0,0,onset,1100,136,2713.35763194942,NaN,0,cr,1,2713.3586718,1100,1,2713.9781556,1100,0,2713.85762908706,2715.35759434447,2716.7826511,NaN,NaN,0,NaN,0.619483799999671
SX102,prp,0,3,21,letter_09,false_font_11,non-target,false_font,center,false_font_08,1,1.11666666666667,0.466,1.466,offset,1100,138,2716.79088183953,NaN,0,cr,1,2718.2569332,1100,1,2718.6578391,1100,0,2717.79086593953,2718.79085092471,2719.8993489,NaN,NaN,0,NaN,0.400905899999998
SX102,prp,0,3,22,letter_09,false_font_11,irrelevant,face,right,face_19,0.5,0.9,0,0,onset,1100,129,2719.90747887718,NaN,0,cr,1,2719.9083903,1100,1,2720.8101246,1100,0,2720.40748721482,2721.90744137224,2722.7993275,NaN,NaN,0,NaN,0.901734300000044
SX102,prp,0,3,23,letter_09,false_font_11,non-target,false_font,center,false_font_15,1.5,0.75,0.466,0.466,onset,1100,145,2722.80744954447,NaN,0,cr,1,2723.2736272,1100,1,2723.9087978,1100,0,2724.30738891977,2724.80741330683,2725.5492887,NaN,NaN,0,NaN,0.635170599999583
SX102,prp,0,3,24,letter_09,false_font_11,non-target,letter,center,letter_13,1,0.816666666666667,0,1,offset,1000,23,2725.55734113459,NaN,0,cr,2,2726.5584563,1000,1,2726.9389438,1000,0,2726.55731670189,2727.557304592,2728.3658797,NaN,NaN,0,NaN,0.380487499999617
SX102,prp,0,3,25,letter_09,false_font_11,non-target,letter,left,letter_05,1.5,1.58333333333333,0.466,0.466,onset,1100,35,2728.37395084942,NaN,0,cr,1,2728.8401041,1100,1,2729.3639601,1100,0,2729.87390555436,2730.37390073459,2731.9490557,NaN,NaN,0,NaN,0.523855999999796
SX102,prp,0,3,26,letter_09,false_font_11,non-target,letter,center,letter_01,1.5,1.83333333333333,0.116,0.116,onset,1100,11,2731.95725142471,NaN,0,cr,1,2732.0734562,1100,1,2732.4921043,1100,0,2733.45715964447,2733.95715533459,2735.78248,NaN,NaN,0,NaN,0.418648100000155
SX102,prp,0,3,27,letter_09,false_font_11,non-target,letter,center,letter_19,1.5,0.733333333333333,0,0,onset,1000,29,2735.79043572471,NaN,0,cr,2,2735.7913915,1000,1,2736.5380201,1000,0,2737.29040347224,2737.7904488673,2738.5154814,NaN,NaN,0,NaN,0.746628599999895
SX102,prp,0,3,28,letter_09,false_font_11,irrelevant,object,center,object_18,1.5,1.93333333333333,0,1.5,offset,1000,208,2738.52371263459,NaN,0,cr,2,2740.0247481,1000,1,2740.3071785,1000,0,2740.02367542471,2740.52363837107,2742.4489401,NaN,NaN,0,NaN,0.282430400000067
SX102,prp,0,3,29,letter_09,false_font_11,irrelevant,face,center,face_01,1.5,1.16666666666667,0.232,1.732,offset,1100,71,2742.4569370593,NaN,0,cr,1,2744.1890998,1100,1,2744.5957248,1100,0,2743.95691704447,2744.45694334447,2745.615408,NaN,NaN,0,NaN,0.406625000000076
SX102,prp,0,3,30,letter_09,false_font_11,target,false_font,right,false_font_11,1.5,0.733333333333333,0.116,1.616,offset,1000,181,2745.62353737718,2746.3709768,1,hit,2,2747.2397915,1000,1,2747.6512766,1,1000,2747.12350088212,2747.62349150683,2748.348552,NaN,NaN,0,0.747439422820662,0.411485099999936
SX102,prp,0,3,31,letter_09,false_font_11,irrelevant,face,center,face_09,1.5,1.43333333333333,0.116,1.616,offset,1000,79,2748.35680452965,NaN,0,cr,2,2749.9729884,1000,1,2750.7217062,1000,0,2749.85676873953,2750.35676504447,2751.7818902,NaN,NaN,0,NaN,0.748717800000122
SX102,prp,0,3,32,letter_09,false_font_11,irrelevant,object,center,object_18,0.5,1.41666666666667,0.232,0.232,onset,1100,208,2751.79005487718,NaN,0,cr,1,2752.0221558,1100,1,2752.4029503,1100,0,2752.29003565436,2753.79001452471,2755.1986163,NaN,NaN,0,NaN,0.38079450000032
SX102,prp,0,3,33,letter_09,false_font_11,non-target,letter,left,letter_03,1,0.933333333333333,0.232,0.232,onset,1000,33,2755.20664660189,NaN,0,cr,2,2755.4386994,1000,1,2755.8712141,1000,0,2756.20666898706,2757.20665280189,2758.1317137,NaN,NaN,0,NaN,0.432514699999956
SX102,prp,0,3,34,letter_09,false_font_11,non-target,letter,center,letter_12,1.5,1,0.232,1.732,offset,1000,22,2758.13990438706,NaN,0,cr,2,2759.8721122,1000,1,2760.2940293,1000,0,2759.63987604447,2760.13986946235,2761.1318163,NaN,NaN,0,NaN,0.421917099999973
SX102,prp,0,3,35,letter_09,false_font_11,target,false_font,right,false_font_11,1,0.833333333333333,0.466,1.466,offset,1100,181,2761.13983503459,2761.8937151,1,hit,1,2762.6062129,1100,1,2762.9899501,1,1100,2762.13982647224,2763.13980261482,2763.9648422,NaN,NaN,0,0.753880065408794,0.383737199999814
SX102,prp,0,3,36,letter_09,false_font_11,target,false_font,center,false_font_11,1.5,1.33333333333333,0.466,0.466,onset,1000,141,2763.97311277718,2764.8981118,1,hit,2,2764.4392999,1000,1,2765.1521514,1,1000,2765.47307172471,2765.97305842471,2767.2981234,NaN,NaN,0,0.924999022821339,0.712851499999942
SX102,prp,0,4,1,letter_11,false_font_15,non-target,letter,left,letter_06,1.5,1.85,0.232,0.232,onset,1100,36,2781.22274074942,NaN,0,cr,1,2781.4548298,1100,1,2782.577956,1100,0,2782.72265559695,2783.22269180189,2785.0644692,NaN,NaN,2772.70623902965,NaN,1.12312620000012
SX102,prp,0,4,2,letter_11,false_font_15,non-target,false_font,center,false_font_18,1,1.16666666666667,0.466,0.466,onset,1000,148,2785.07260547718,NaN,0,cr,2,2785.5388344,1000,1,2785.9297037,1000,0,2786.07259057224,2787.07256005436,2788.230976,NaN,NaN,0,NaN,0.390869300000304
SX102,prp,0,4,3,letter_11,false_font_15,non-target,false_font,right,false_font_11,1,1,0.232,0.232,onset,1000,181,2788.23922674942,NaN,0,cr,2,2788.471432,1000,1,2789.2809508,1000,0,2789.23917017718,2790.23915482471,2791.2311138,NaN,NaN,0,NaN,0.809518800000205
SX102,prp,0,4,4,letter_11,false_font_15,irrelevant,face,left,face_09,0.5,1.75,0,0,onset,1000,99,2791.23913797718,NaN,0,cr,2,2791.2401096,1000,1,2791.7892004,1000,0,2791.73911082965,2793.239084392,2794.9809635,NaN,NaN,0,NaN,0.549090800000158
SX102,prp,0,4,5,letter_11,false_font_15,non-target,letter,right,letter_05,0.5,1.58333333333333,0.116,0.616,offset,1000,55,2794.989040792,NaN,0,cr,2,2795.6052492,1000,1,2796.1037462,1000,0,2795.489023192,2796.98899275436,2798.5641072,NaN,NaN,0,NaN,0.498497000000043
SX102,prp,0,4,6,letter_11,false_font_15,non-target,letter,left,letter_15,1,1.5,0.116,0.116,onset,1000,45,2798.57229241977,NaN,0,cr,2,2798.6885618,1000,1,2799.2397378,1000,0,2799.57226121977,2800.5722496,2802.0640315,NaN,NaN,0,NaN,0.551175999999941
SX102,prp,0,4,7,letter_11,false_font_15,non-target,letter,center,letter_08,0.5,1.15,0,0,onset,1100,18,2802.07220757224,NaN,0,cr,1,2802.0731299,1100,1,2802.750762,1100,0,2802.57218674447,2804.07215351177,2805.2139857,NaN,NaN,0,NaN,0.67763210000021
SX102,prp,0,4,8,letter_11,false_font_15,target,letter,right,letter_11,1.5,0.983333333333333,0.116,1.616,offset,1000,61,2805.22212080189,2806.0540517,1,hit,2,2806.8383591,1000,1,2807.3370099,1,1000,2806.72213908212,2807.22213241977,2808.1971323,NaN,NaN,0,0.831930898113114,0.498650799999723
SX102,prp,0,4,9,letter_11,false_font_15,irrelevant,object,center,object_17,1.5,0.9,0,0,onset,1000,207,2808.20539962965,NaN,0,cr,2,2808.206435,1000,1,2808.8509839,1000,0,2809.7054190673,2810.20533707718,2811.09708,NaN,NaN,0,NaN,0.644548899999791
SX102,prp,0,4,10,letter_11,false_font_15,irrelevant,face,center,face_02,1,1.63333333333333,0.466,1.466,offset,1100,72,2811.10532042471,NaN,0,cr,1,2812.5715397,1100,1,2812.9679054,1100,0,2812.10529573953,2813.10528473459,2814.7303931,NaN,NaN,0,NaN,0.396365699999933
SX102,prp,0,4,11,letter_11,false_font_15,irrelevant,object,center,object_15,1,0.75,0.232,0.232,onset,1000,205,2814.738570992,NaN,0,cr,2,2814.9706544,1000,1,2815.44107,1000,0,2815.73853994447,2816.738524392,2817.4803191,NaN,NaN,0,NaN,0.470415599999797
SX102,prp,0,4,12,letter_11,false_font_15,irrelevant,face,left,face_06,1,1.11666666666667,0.116,1.116,offset,1100,96,2817.48856062471,NaN,0,cr,1,2818.6048139,1100,1,2819.0076982,1100,0,2818.48847523459,2819.48846161977,2820.5969611,NaN,NaN,0,NaN,0.402884300000096
SX102,prp,0,4,13,letter_11,false_font_15,irrelevant,object,center,object_11,1,1,0.116,0.116,onset,1100,201,2820.605094992,NaN,0,cr,1,2820.7213047,1100,1,2821.4767473,1100,0,2821.60507311977,2822.60504284447,2823.5968104,NaN,NaN,0,NaN,0.755442600000151
SX102,prp,0,4,14,letter_11,false_font_15,non-target,letter,right,letter_05,1,0.866666666666667,0.466,1.466,offset,1100,55,2823.60502317718,NaN,0,cr,1,2825.0710678,1100,1,2825.8990427,1100,0,2824.60500572471,2825.60498362471,2826.4635893,NaN,NaN,0,NaN,0.827974899999845
SX102,prp,0,4,15,letter_11,false_font_15,irrelevant,object,left,object_07,0.5,1.83333333333333,0.232,0.732,offset,1000,217,2826.47162841977,NaN,0,cr,2,2827.2037095,1000,1,2827.800012,1000,0,2826.97161057718,2828.47157962471,2830.2967015,NaN,NaN,0,NaN,0.596302500000093
SX102,prp,0,4,16,letter_11,false_font_15,target,false_font,right,false_font_15,0.5,1.15,0,0,onset,1100,185,2830.30485139695,2831.0656806,1,hit,1,2830.3059495,1000,0,2831.8926694,1,1000,2830.80484294942,2832.30480331177,2833.4465336,NaN,NaN,0,0.760829203054982,1.58671989999993
SX102,prp,0,4,17,letter_11,false_font_15,irrelevant,object,center,object_08,0.5,1.6,0.466,0.966,offset,1000,198,2833.45478827224,NaN,0,cr,2,2834.4208788,1000,1,2835.0362346,1000,0,2833.95481278212,2835.45474234447,2837.0466115,NaN,NaN,0,NaN,0.615355800000088
SX102,prp,0,4,18,letter_11,false_font_15,target,letter,right,letter_11,1,1.93333333333333,0.232,1.232,offset,1100,61,2837.05470172471,2837.7437271,1,hit,1,2838.2869343,1100,1,2838.9020749,1,1100,2838.05467736235,2839.05462110072,2840.9797099,NaN,NaN,0,0.689025375291749,0.615140599999904
SX102,prp,0,4,19,letter_11,false_font_15,non-target,letter,right,letter_13,1,0.716666666666667,0.466,0.466,onset,1100,63,2840.98792934942,NaN,0,cr,1,2841.454124,1100,1,2842.0629717,1100,0,2841.98791119695,2842.9879009673,2843.6964509,NaN,NaN,0,NaN,0.608847700000297
SX102,prp,0,4,20,letter_11,false_font_15,irrelevant,object,center,object_07,0.5,1.66666666666667,0,0.5,offset,1100,197,2843.70454174447,NaN,0,cr,1,2844.2055414,1100,1,2844.5696607,1100,0,2844.20454551977,2845.70450187224,2847.3630432,NaN,NaN,0,NaN,0.364119299999857
SX102,prp,0,4,21,letter_11,false_font_15,non-target,letter,right,letter_16,1,1.55,0.232,0.232,onset,1100,66,2847.37112147224,NaN,0,cr,1,2847.6032021,1100,1,2848.2736924,1100,0,2848.371146492,2849.37107941482,2850.9129765,NaN,NaN,0,NaN,0.670490299999983
SX102,prp,0,4,22,letter_11,false_font_15,non-target,false_font,right,false_font_18,1.5,1.61666666666667,0.116,1.616,offset,1100,188,2850.92103808706,NaN,0,cr,1,2852.5372028,1100,1,2853.1859532,1100,0,2852.42099458706,2852.92104017718,2854.5295702,NaN,NaN,0,NaN,0.648750399999699
SX102,prp,0,4,23,letter_11,false_font_15,non-target,letter,center,letter_19,1,1.43333333333333,0.116,0.116,onset,1100,29,2854.53762428706,NaN,0,cr,1,2854.6537108,1100,1,2855.1896804,1100,0,2855.53764694447,2856.53757632965,2857.9626694,NaN,NaN,0,NaN,0.535969599999589
SX102,prp,0,4,24,letter_11,false_font_15,non-target,letter,left,letter_07,1.5,0.75,0.116,1.616,offset,1100,37,2857.970874292,NaN,0,cr,1,2859.5870923,1100,1,2860.0276516,1100,0,2859.47083197224,2859.97082538706,2860.7125653,NaN,NaN,0,NaN,0.440559299999677
SX102,prp,0,4,25,letter_11,false_font_15,irrelevant,object,center,object_01,1,0.983333333333333,0,1,offset,1000,191,2860.72080888212,NaN,0,cr,2,2861.7220442,1000,1,2862.1066207,1000,0,2861.72076692165,2862.72076232471,2863.6960321,NaN,NaN,0,NaN,0.384576500000094
SX102,prp,0,4,26,letter_11,false_font_15,non-target,letter,center,letter_12,1,0.883333333333333,0.116,1.116,offset,1000,22,2863.70406308212,NaN,0,cr,2,2864.8201955,1000,1,2865.3558822,1000,0,2864.70403972471,2865.704013092,2866.5791805,NaN,NaN,0,NaN,0.535686700000042
SX102,prp,0,4,27,letter_11,false_font_15,non-target,false_font,center,false_font_19,0.5,1.91666666666667,0.116,0.616,offset,1100,149,2866.58733903459,NaN,0,cr,1,2867.20353,1100,1,2867.6116124,1100,0,2867.08732247718,2868.58729087224,2870.4958061,NaN,NaN,0,NaN,0.408082400000239
SX102,prp,0,4,28,letter_11,false_font_15,non-target,letter,left,letter_12,1.5,0.866666666666667,0.466,0.466,onset,1000,42,2870.50390089695,NaN,0,cr,2,2870.9701171,1000,1,2871.4406794,1000,0,2872.00386739695,2872.50391067718,2873.3622866,NaN,NaN,0,NaN,0.470562299999983
SX102,prp,0,4,29,letter_11,false_font_15,irrelevant,object,right,object_20,1.5,0.733333333333333,0,1.5,offset,1000,250,2873.37050128706,NaN,0,cr,2,2874.8715813,1000,1,2875.4800523,1000,0,2874.87046883953,2875.37046304447,2876.0956853,NaN,NaN,0,NaN,0.608471000000009
SX102,prp,0,4,30,letter_11,false_font_15,non-target,letter,center,letter_08,1,0.866666666666667,0.466,1.466,offset,1000,18,2876.10377487718,NaN,0,cr,2,2877.5699824,1000,1,2877.9299361,1000,0,2877.10374982965,2878.10371660189,2878.9622161,NaN,NaN,0,NaN,0.359953700000005
SX102,prp,0,4,31,letter_11,false_font_15,irrelevant,face,center,face_18,1.5,1.3,0.466,1.966,offset,1100,88,2878.9703763673,NaN,0,cr,1,2880.9364868,1100,1,2881.2629985,1100,0,2880.47034632471,2880.97032797718,2882.2622601,NaN,NaN,0,NaN,0.326511700000083
SX102,prp,0,4,32,letter_11,false_font_15,irrelevant,face,center,face_03,0.5,1.36666666666667,0.466,0.966,offset,1000,73,2882.27029112471,NaN,0,cr,2,2883.2363686,1000,1,2883.6096045,1000,0,2882.770276492,2884.27024568706,2885.6288145,NaN,NaN,0,NaN,0.373235900000054
SX102,prp,0,4,33,letter_11,false_font_15,irrelevant,face,left,face_17,0.5,1.05,0.466,0.466,onset,1100,107,2885.63688593953,NaN,0,cr,1,2886.1029596,1100,1,2886.5569886,1100,0,2886.13687588706,2887.63684192965,2888.6786957,NaN,NaN,0,NaN,0.454028999999991
SX102,prp,0,4,34,letter_11,false_font_15,irrelevant,face,center,face_05,1.5,1.5,0.232,0.232,onset,1100,75,2888.68681982471,NaN,0,cr,1,2888.9189452,1100,1,2889.2590711,1100,0,2890.18676940189,2890.68676118212,2892.1786651,NaN,NaN,0,NaN,0.340125899999748
SX102,prp,0,4,35,letter_11,false_font_15,irrelevant,face,left,face_08,1,1.65,0.116,0.116,onset,1100,98,2892.18673517718,NaN,0,cr,1,2892.3029294,1100,1,2892.6857967,1100,0,2893.18670982471,2894.18668627718,2895.8285186,NaN,NaN,0,NaN,0.382867300000271
SX102,prp,0,5,1,letter_10,false_font_18,non-target,letter,center,letter_13,1,0.866666666666667,0.466,1.466,offset,1100,23,2915.73630213953,NaN,0,cr,1,2917.2023969,1100,1,2917.9096137,1100,0,2916.73614323953,2917.73611230683,2918.5947139,NaN,NaN,2905.63641381977,NaN,0.707216799999969
SX102,prp,0,5,2,letter_10,false_font_18,non-target,false_font,center,false_font_07,1,0.783333333333333,0,0,onset,1000,137,2918.60277591977,NaN,0,cr,2,2918.6035965,1000,1,2919.3720085,1000,0,2919.60280272471,2920.60268066801,2921.3779644,NaN,NaN,0,NaN,0.768411999999898
SX102,prp,0,5,3,letter_10,false_font_18,irrelevant,object,center,object_06,1,1.2,0.232,1.232,offset,1000,196,2921.38603247718,NaN,0,cr,2,2922.618208,1000,1,2923.1129563,1000,0,2922.38600668212,2923.38597341177,2924.5777075,NaN,NaN,0,NaN,0.494748300000083
SX102,prp,0,5,4,letter_10,false_font_18,irrelevant,object,right,object_10,0.5,0.966666666666667,0.232,0.732,offset,1100,240,2924.58595918706,NaN,0,cr,1,2925.3180921,1100,1,2925.7416906,1100,0,2925.08594768706,2926.58590987224,2927.544311,NaN,NaN,0,NaN,0.423598500000026
SX102,prp,0,5,5,letter_10,false_font_18,non-target,letter,center,letter_09,0.5,1,0.466,0.966,offset,1100,19,2927.55256108706,NaN,0,cr,1,2928.5186595,1000,0,2930.1419522,1000,0,2928.05254129695,2929.55250396918,2930.544362,NaN,NaN,0,NaN,1.62329270000009
SX102,prp,0,5,6,letter_10,false_font_18,non-target,letter,left,letter_15,0.5,1.23333333333333,0.232,0.732,offset,1100,45,2930.55248812471,2931.7269287,1,fa,1,2931.2846294,1000,0,2932.6220104,1,1000,2931.05247063953,2932.5524235266,2933.7775367,NaN,NaN,0,1.17444057529156,1.33738099999982
SX102,prp,0,5,7,letter_10,false_font_18,non-target,false_font,center,false_font_10,0.5,1.63333333333333,0,0,onset,1000,140,2933.78574772965,NaN,0,cr,2,2933.7866764,1100,0,2933.8223631,1100,0,2934.28573062471,2935.78568827718,2937.410836,NaN,NaN,0,NaN,0.035686700000042
SX102,prp,0,5,8,letter_10,false_font_18,irrelevant,object,left,object_02,1.5,1.06666666666667,0.116,0.116,onset,1100,212,2937.41899666235,NaN,0,cr,1,2937.5351468,1100,1,2938.0735848,1100,0,2938.91895594447,2939.41894352965,2940.47749,NaN,NaN,0,NaN,0.538438000000042
SX102,prp,0,5,9,letter_10,false_font_18,irrelevant,object,center,object_15,1.5,1.15,0.116,0.116,onset,1000,205,2940.48558620189,NaN,0,cr,2,2940.6016505,1000,1,2941.1259602,1000,0,2941.98554737718,2942.48552872965,2943.6274255,NaN,NaN,0,NaN,0.524309700000231
SX102,prp,0,5,10,letter_10,false_font_18,irrelevant,object,center,object_04,1.5,1.43333333333333,0,0,onset,1000,194,2943.63550249695,NaN,0,cr,2,2943.6366671,1000,1,2944.3445458,1000,0,2945.13547602471,2945.63546547718,2947.060731,NaN,NaN,0,NaN,0.707878700000037
SX102,prp,0,5,11,letter_10,false_font_18,non-target,letter,right,letter_09,1,1.26666666666667,0.466,1.466,offset,1000,59,2947.06875964447,NaN,0,cr,2,2948.5348933,1000,1,2948.9181037,1000,0,2948.06873417718,2949.06871827224,2950.3272948,NaN,NaN,0,NaN,0.383210399999825
SX102,prp,0,5,12,letter_10,false_font_18,irrelevant,face,right,face_05,0.5,1.23333333333333,0.466,0.466,onset,1000,115,2950.33534594942,NaN,0,cr,2,2950.8015734,1000,1,2951.2446178,1000,0,2950.83532743953,2952.33530188706,2953.5604754,NaN,NaN,0,NaN,0.443044399999962
SX102,prp,0,5,13,letter_10,false_font_18,irrelevant,face,left,face_15,1,1.06666666666667,0.466,1.466,offset,1100,105,2953.56860399695,NaN,0,cr,1,2955.0347153,1100,1,2955.4746612,1100,0,2954.56858252471,2955.56855022471,2956.627133,NaN,NaN,0,NaN,0.439945900000112
SX102,prp,0,5,14,letter_10,false_font_18,irrelevant,object,center,object_02,0.5,1.96666666666667,0.232,0.732,offset,1100,192,2956.63519278212,NaN,0,cr,1,2957.3673466,1100,1,2957.6570653,1100,0,2957.13518862471,2958.63514702471,2960.593742,NaN,NaN,0,NaN,0.289718699999867
SX102,prp,0,5,15,letter_10,false_font_18,target,letter,right,letter_10,0.5,1.38333333333333,0.466,0.466,onset,1000,60,2960.60176622471,2961.5660124,1,hit,2,2961.0679619,1000,1,2961.9683192,1,1000,2961.10176392471,2962.60171594447,2963.9767794,NaN,NaN,0,0.964246175291919,0.900357300000451
SX102,prp,0,5,16,letter_10,false_font_18,non-target,letter,center,letter_06,1,0.9,0.232,0.232,onset,1100,16,2963.98501534942,NaN,0,cr,1,2964.2170718,1100,1,2964.7169965,1100,0,2964.98499308706,2965.984992292,2966.8768363,NaN,NaN,0,NaN,0.49992469999961
SX102,prp,0,5,17,letter_10,false_font_18,irrelevant,face,center,face_06,1,0.983333333333333,0.232,1.232,offset,1000,76,2966.88496112471,NaN,0,cr,2,2968.117154,1000,1,2968.5900139,1000,0,2967.88494878212,2968.88490362471,2969.8599886,NaN,NaN,0,NaN,0.472859900000003
SX102,prp,0,5,18,letter_10,false_font_18,non-target,letter,right,letter_09,0.5,0.833333333333333,0.232,0.732,offset,1100,59,2969.86821872471,NaN,0,cr,1,2970.6004442,1100,1,2971.2255854,1100,0,2970.36821152965,2971.86816451977,2972.6934379,NaN,NaN,0,NaN,0.625141200000144
SX102,prp,0,5,19,letter_10,false_font_18,irrelevant,object,center,object_19,0.5,0.933333333333333,0.116,0.116,onset,1100,209,2972.70148333459,NaN,0,cr,1,2972.8177039,1100,1,2973.4066206,1100,0,2973.20146912965,2974.7014240593,2975.6265789,NaN,NaN,0,NaN,0.588916700000027
SX102,prp,0,5,20,letter_10,false_font_18,irrelevant,object,center,object_11,1.5,0.85,0,1.5,offset,1100,201,2975.63474192471,NaN,0,cr,1,2977.1357259,1100,1,2977.5194415,1100,0,2977.13470292965,2977.63469542965,2978.4765108,NaN,NaN,0,NaN,0.38371559999996
SX102,prp,0,5,21,letter_10,false_font_18,non-target,false_font,left,false_font_06,1.5,1.13333333333333,0.116,1.616,offset,1000,156,2978.48468037224,NaN,0,cr,2,2980.1009192,1000,1,2980.4985867,1000,0,2979.98464429695,2980.48462899695,2981.6097625,NaN,NaN,0,NaN,0.397667499999898
SX102,prp,0,5,22,letter_10,false_font_18,non-target,letter,center,letter_13,1.5,0.816666666666667,0.116,0.116,onset,1100,23,2981.61794223459,NaN,0,cr,1,2981.7341861,1100,1,2982.3656015,1100,0,2983.117893492,2983.617887492,2984.4264589,NaN,NaN,0,NaN,0.631415400000151
SX102,prp,0,5,23,letter_10,false_font_18,non-target,letter,center,letter_14,0.5,0.933333333333333,0.116,0.616,offset,1100,24,2984.43453573953,NaN,0,cr,1,2985.050676,1100,1,2985.4498563,1100,0,2984.93452202471,2986.43448571177,2987.3596903,NaN,NaN,0,NaN,0.399180300000353
SX102,prp,0,5,24,letter_10,false_font_18,non-target,false_font,right,false_font_17,0.5,0.783333333333333,0.232,0.732,offset,1100,187,2987.367803492,NaN,0,cr,1,2988.0998745,1100,1,2988.5352814,1100,0,2987.86779053459,2989.36776194447,2990.1430041,NaN,NaN,0,NaN,0.435406899999634
SX102,prp,0,5,25,letter_10,false_font_18,irrelevant,object,left,object_11,1.5,1.4,0.466,1.966,offset,1100,221,2990.15106046424,NaN,0,cr,1,2992.1172929,1100,1,2992.5770061,1100,0,2991.65102980683,2992.15101734447,2993.5427848,NaN,NaN,0,NaN,0.459713199999896
SX102,prp,0,5,26,letter_10,false_font_18,irrelevant,object,right,object_17,1,0.833333333333333,0.232,1.232,offset,1100,247,2993.55099198706,NaN,0,cr,1,2994.7831144,1100,1,2995.1959317,1100,0,2994.55095375436,2995.55093670189,2996.3760775,NaN,NaN,0,NaN,0.412817299999915
SX102,prp,0,5,27,letter_10,false_font_18,non-target,letter,center,letter_09,1,1.08333333333333,0,0,onset,1100,19,2996.38425074942,NaN,0,cr,1,2996.3854,1100,1,2996.8889413,1100,0,2997.38422793953,2998.38420392965,2999.4593791,NaN,NaN,0,NaN,0.503541300000052
SX102,prp,0,5,28,letter_10,false_font_18,non-target,false_font,left,false_font_20,0.5,0.7,0.466,0.966,offset,1100,170,2999.46752117718,NaN,0,cr,1,3000.4336252,1100,1,3000.863568,1100,0,2999.96750667224,3001.46747007718,3002.1592832,NaN,NaN,0,NaN,0.42994280000039
SX102,prp,0,5,29,letter_10,false_font_18,irrelevant,object,center,object_05,1,0.833333333333333,0.232,1.232,offset,1100,195,3002.16744467718,NaN,0,cr,1,3003.3996172,1100,1,3003.8653085,1100,0,3003.16742822471,3004.16740490189,3004.9925956,NaN,NaN,0,NaN,0.465691299999889
SX102,prp,0,5,30,letter_10,false_font_18,non-target,letter,center,letter_11,1,1.01666666666667,0.232,1.232,offset,1100,21,3005.00072131977,NaN,0,cr,1,3006.2329808,0,NaN,NaN,0,0,3006.00068807224,3007.000671292,3008.0092147,NaN,NaN,0,NaN,NaN
SX102,prp,0,5,31,letter_10,false_font_18,target,false_font,right,false_font_18,1,0.75,0,0,onset,1000,188,3008.01730404942,3009.2976429,1,hit,2,3008.0183328,1000,1,3009.6885522,1,1000,3009.01728981977,3010.01725796424,3010.7589824,NaN,NaN,0,1.28033885058403,1.67021939999995
SX102,prp,0,5,32,letter_10,false_font_18,irrelevant,face,right,face_17,1.5,1.98333333333333,0.466,0.466,onset,1100,127,3010.76724228706,NaN,0,cr,1,3011.233528,1100,1,3011.6489106,1100,0,3012.26719926424,3012.76720073953,3014.742261,NaN,NaN,0,NaN,0.415382599999703
SX102,prp,0,5,33,letter_10,false_font_18,irrelevant,face,center,face_17,0.5,1.21666666666667,0,0.5,offset,1100,87,3014.75049431977,NaN,0,cr,1,3015.251567,1100,1,3015.6185592,1100,0,3015.25046309695,3016.75043170683,3017.958934,NaN,NaN,0,NaN,0.366992200000368
SX102,prp,0,5,34,letter_10,false_font_18,non-target,letter,center,letter_19,0.5,1.3,0.466,0.466,onset,1000,29,3017.96707384447,NaN,0,cr,2,3018.4331687,1000,1,3018.9980178,1000,0,3018.46704991177,3019.96703611977,3021.2587789,NaN,NaN,0,NaN,0.564849100000174
SX102,prp,0,6,1,letter_12,false_font_04,target,letter,left,letter_12,1,0.716666666666667,0.466,1.466,offset,1000,42,3035.76665913459,3036.7765607,1,hit,2,3037.232751,1000,1,3037.6775926,1,1000,3036.76664311977,3037.76660153953,3038.4750095,NaN,NaN,3028.00020913953,1.00990156540865,0.444841600000018
SX102,prp,0,6,2,letter_12,false_font_04,target,letter,left,letter_12,1.5,1.26666666666667,0.466,0.466,onset,1000,42,3038.48326447224,3039.3325353,1,hit,2,3038.94933,1000,1,3039.5895144,1,1000,3039.98323066235,3040.48320897718,3041.7416118,NaN,NaN,0,0.849270827762666,0.64018440000018
SX102,prp,0,6,3,letter_12,false_font_04,irrelevant,object,right,object_17,0.5,1.21666666666667,0.116,0.616,offset,1100,247,3041.74984705436,NaN,0,cr,1,3042.3661465,1100,1,3042.7789844,1100,0,3042.24983721482,3043.74978944447,3044.9583861,NaN,NaN,0,NaN,0.412837899999886
SX102,prp,0,6,4,letter_12,false_font_04,non-target,letter,left,letter_05,0.5,1.03333333333333,0,0.5,offset,1000,35,3044.96643742471,NaN,0,cr,2,3045.4674842,1000,1,3045.844574,1000,0,3045.46642652471,3046.96640024447,3047.9916334,NaN,NaN,0,NaN,0.377089800000249
SX102,prp,0,6,5,letter_12,false_font_04,non-target,false_font,center,false_font_03,1.5,1.4,0,1.5,offset,1000,133,3047.99970807224,NaN,0,cr,2,3049.5008249,1000,1,3050.0335899,1000,0,3049.499654892,3049.99964353953,3051.3916122,NaN,NaN,0,NaN,0.532764999999927
SX102,prp,0,6,6,letter_12,false_font_04,non-target,letter,right,letter_15,1,1.88333333333333,0,0,onset,1100,65,3051.399607792,NaN,0,cr,1,3051.400586,1100,1,3052.1528441,1100,0,3052.39959400189,3053.39956535436,3055.2746879,NaN,NaN,0,NaN,0.752258099999835
SX102,prp,0,6,7,letter_12,false_font_04,irrelevant,face,right,face_08,1.5,1.21666666666667,0.116,0.116,onset,1000,118,3055.28286097224,NaN,0,cr,2,3055.398967,1000,1,3055.7555487,1000,0,3056.78282107718,3057.28285324447,3058.4914589,NaN,NaN,0,NaN,0.356581699999879
SX102,prp,0,6,8,letter_12,false_font_04,irrelevant,object,right,object_06,1.5,0.716666666666667,0.116,0.116,onset,1000,236,3058.49944308706,NaN,0,cr,2,3058.6155174,1000,1,3059.0568884,1000,0,3059.99941278706,3060.49939004447,3061.2078546,NaN,NaN,0,NaN,0.44137099999989
SX102,prp,0,6,9,letter_12,false_font_04,irrelevant,face,right,face_10,1.5,0.966666666666667,0,1.5,offset,1000,120,3061.21605243459,NaN,0,cr,2,3062.7172252,1000,1,3063.0005886,1000,0,3062.71601429695,3063.21604074942,3064.1745617,NaN,NaN,0,NaN,0.283363399999871
SX102,prp,0,6,10,letter_12,false_font_04,non-target,false_font,center,false_font_03,1,1.1,0.466,0.466,onset,1000,133,3064.18264687718,NaN,0,cr,2,3064.6488338,1000,1,3065.0725357,1000,0,3065.18261948706,3066.18260338706,3067.2743895,NaN,NaN,0,NaN,0.423701900000196
SX102,prp,0,6,11,letter_12,false_font_04,irrelevant,object,center,object_15,1,1.18333333333333,0,1,offset,1000,205,3067.28257578212,NaN,0,cr,2,3068.283495,1000,1,3068.6006933,1000,0,3068.28254947224,3069.28252992471,3070.4577853,NaN,NaN,0,NaN,0.317198299999745
SX102,prp,0,6,12,letter_12,false_font_04,target,false_font,left,false_font_04,1,1.65,0.232,1.232,offset,1000,154,3070.46584014447,3071.2487876,1,hit,2,3071.6979747,1000,1,3072.1697749,1,1000,3071.46580048212,3072.46578703459,3074.1075149,NaN,NaN,0,0.782947455525573,0.471800199999961
SX102,prp,0,6,13,letter_12,false_font_04,non-target,false_font,right,false_font_13,0.5,1.36666666666667,0.116,0.116,onset,1000,183,3074.11573798212,NaN,0,cr,2,3074.2318678,1000,1,3075.4397309,1000,0,3074.61573211977,3076.11570234447,3077.4740865,NaN,NaN,0,NaN,1.20786309999994
SX102,prp,0,6,14,letter_12,false_font_04,non-target,letter,left,letter_14,0.5,0.816666666666667,0.232,0.732,offset,1100,44,3077.48233093953,NaN,0,cr,1,3078.2144944,1100,1,3078.5347845,1100,0,3077.98231477718,3079.48228203459,3080.290737,NaN,NaN,0,NaN,0.320290099999966
SX102,prp,0,6,15,letter_12,false_font_04,non-target,letter,right,letter_18,1.5,1.03333333333333,0,0,onset,1100,68,3080.29893270189,NaN,0,cr,1,3080.3000665,1100,1,3080.7358315,1100,0,3081.79889673459,3082.29887850189,3083.3239564,NaN,NaN,0,NaN,0.435765000000174
SX102,prp,0,6,16,letter_12,false_font_04,irrelevant,object,center,object_05,0.5,1.13333333333333,0.232,0.232,onset,1100,195,3083.33218511977,NaN,0,cr,1,3083.5643434,1100,1,3083.9527914,1100,0,3083.83218042471,3085.33214094447,3086.457217,NaN,NaN,0,NaN,0.388448000000153
SX102,prp,0,6,17,letter_12,false_font_04,non-target,letter,right,letter_17,1.5,0.733333333333333,0.232,1.732,offset,1000,67,3086.46547974447,NaN,0,cr,2,3088.1976424,1000,1,3088.7027119,1000,0,3087.96540458212,3088.465391592,3089.1905142,NaN,NaN,0,NaN,0.505069499999991
SX102,prp,0,6,18,letter_12,false_font_04,irrelevant,object,center,object_05,1.5,1.63333333333333,0,1.5,offset,1000,195,3089.19871777224,NaN,0,cr,2,3090.6996555,1000,1,3091.0139425,1000,0,3090.69868307224,3091.19866137718,3092.8238725,NaN,NaN,0,NaN,0.314287000000149
SX102,prp,0,6,19,letter_12,false_font_04,irrelevant,object,right,object_03,0.5,0.7,0.116,0.116,onset,1000,233,3092.83194785436,NaN,0,cr,2,3092.9480802,1000,1,3093.3068659,1000,0,3093.33195343459,3094.83191507718,3095.5238325,NaN,NaN,0,NaN,0.358785700000226
SX102,prp,0,6,20,letter_12,false_font_04,target,letter,center,letter_12,0.5,1.58333333333333,0,0,onset,1000,22,3095.53190211482,3097.7886539,1,hit,2,3095.5327834,1000,1,3098.6195669,1,1000,3096.03187837718,3097.53190272471,3099.1070275,NaN,NaN,0,2.25675178517531,3.08678349999991
SX102,prp,0,6,21,letter_12,false_font_04,non-target,letter,center,letter_07,1.5,0.766666666666667,0,1.5,offset,1000,17,3099.11513325436,NaN,0,cr,2,3100.6162303,1000,1,3101.1986978,1000,0,3100.61510949695,3101.11513407224,3101.8736723,NaN,NaN,0,NaN,0.582467499999893
SX102,prp,0,6,22,letter_12,false_font_04,target,false_font,center,false_font_04,0.5,1.28333333333333,0.232,0.732,offset,1000,134,3101.881747592,3102.5297327,1,hit,2,3102.6139075,1000,1,3103.0495203,1,1000,3102.38179094942,3103.88175592965,3105.1567582,NaN,NaN,0,0.647985107996192,0.435612799999944
SX102,prp,0,6,23,letter_12,false_font_04,non-target,letter,left,letter_02,1,0.966666666666667,0,1,offset,1100,32,3105.16505042471,NaN,0,cr,1,3106.1659327,1100,1,3106.5179462,1100,0,3106.16496901977,3107.16494634447,3108.1234588,NaN,NaN,0,NaN,0.352013499999885
SX102,prp,0,6,24,letter_12,false_font_04,non-target,false_font,right,false_font_18,1,1.58333333333333,0,0,onset,1100,188,3108.131585492,NaN,0,cr,1,3108.1325726,1100,1,3109.3568126,1100,0,3109.13157354447,3110.13153564942,3111.7066326,NaN,NaN,0,NaN,1.22424000000001
SX102,prp,0,6,25,letter_12,false_font_04,irrelevant,face,left,face_03,0.5,1.16666666666667,0.232,0.732,offset,1100,93,3111.71483668706,NaN,0,cr,1,3112.4470218,1100,1,3112.8555775,1100,0,3112.21482325436,3113.71478788212,3114.8733908,NaN,NaN,0,NaN,0.408555699999852
SX102,prp,0,6,26,letter_12,false_font_04,irrelevant,object,left,object_11,0.5,1.4,0.116,0.616,offset,1100,221,3114.88143823953,NaN,0,cr,1,3115.497627,1100,1,3115.9427381,1100,0,3115.381434692,3116.88138093459,3118.2734383,NaN,NaN,0,NaN,0.445111099999849
SX102,prp,0,6,27,letter_12,false_font_04,irrelevant,face,center,face_12,1,1.31666666666667,0,0,onset,1100,82,3118.28135103459,NaN,0,cr,1,3118.2822814,1100,1,3118.703849,1100,0,3119.281321592,3120.28130679695,3121.5898843,NaN,NaN,0,NaN,0.421567599999889
SX102,prp,0,6,28,letter_12,false_font_04,target,false_font,center,false_font_04,1.5,0.85,0.466,1.966,offset,1000,134,3121.59794349695,3122.2917343,1,hit,2,3123.5639952,1000,1,3124.0077235,1,1000,3123.09790487718,3123.59789677718,3124.4396266,NaN,NaN,0,0.693790803054526,0.443728299999748
SX102,prp,0,6,29,letter_12,false_font_04,irrelevant,object,left,object_13,1.5,0.9,0.466,1.966,offset,1000,223,3124.44787561977,NaN,0,cr,2,3126.4141066,1000,1,3126.8194779,1000,0,3125.94784092471,3126.44782792471,3127.3396066,NaN,NaN,0,NaN,0.405371299999842
SX102,prp,0,6,30,letter_12,false_font_04,irrelevant,face,center,face_12,1.5,0.75,0.116,0.116,onset,1000,82,3127.34780499695,NaN,0,cr,2,3127.4642011,1000,1,3127.9218606,1000,0,3128.84781977224,3129.34776552471,3130.0895106,NaN,NaN,0,NaN,0.457659499999863
SX102,prp,0,6,31,letter_12,false_font_04,non-target,letter,center,letter_20,0.5,1.6,0.116,0.116,onset,1100,30,3130.09774562471,NaN,0,cr,1,3130.21396,1100,1,3130.7988256,1100,0,3130.59773342471,3132.09769802965,3133.6895787,NaN,NaN,0,NaN,0.58486559999983
SX102,prp,0,6,32,letter_12,false_font_04,irrelevant,face,left,face_10,0.5,1.5,0.466,0.966,offset,1100,100,3133.69765981977,NaN,0,cr,1,3134.6637885,1100,1,3135.4394776,1100,0,3134.19764089695,3135.697596492,3137.1894294,NaN,NaN,0,NaN,0.775689099999909
SX102,prp,0,6,33,letter_12,false_font_04,non-target,letter,center,letter_15,0.5,0.983333333333333,0.116,0.616,offset,1100,25,3137.1976309673,NaN,0,cr,1,3137.8136891,1100,1,3138.9497313,1100,0,3137.69756477718,3139.19752828706,3140.1726466,NaN,NaN,0,NaN,1.13604220000025
SX102,prp,0,6,34,letter_12,false_font_04,non-target,letter,left,letter_08,0.5,1.53333333333333,0.116,0.616,offset,1100,38,3140.18083807224,NaN,0,cr,1,3140.7969906,1100,1,3141.2397158,1100,0,3140.68082782471,3142.18078742471,3143.7059163,NaN,NaN,0,NaN,0.442725200000041
SX102,prp,0,6,35,letter_12,false_font_04,irrelevant,object,center,object_03,1.5,1.18333333333333,0.466,1.966,offset,1000,193,3143.71408543953,NaN,0,cr,2,3145.6802636,1000,1,3146.0737801,1000,0,3145.21405301977,3145.714037092,3146.8891129,NaN,NaN,0,NaN,0.393516499999805
SX102,prp,0,6,36,letter_12,false_font_04,irrelevant,face,center,face_11,1.5,0.8,0.116,1.616,offset,1100,81,3146.89733069695,NaN,0,cr,1,3148.5135222,1100,1,3149.1808019,1100,0,3148.39731302471,3148.89729972471,3149.6891601,NaN,NaN,0,NaN,0.667279700000108
SX102,prp,0,6,37,letter_12,false_font_04,non-target,letter,center,letter_17,0.5,1.81666666666667,0,0,onset,1100,27,3149.69731058212,NaN,0,cr,1,3149.6984333,1100,1,3150.3395079,1100,0,3150.19727008212,3151.69723337224,3153.5057495,NaN,NaN,0,NaN,0.641074600000138
SX102,prp,0,6,38,letter_12,false_font_04,non-target,false_font,center,false_font_14,1,1.16666666666667,0,0,onset,1000,144,3153.51384390683,NaN,0,cr,2,3153.5148708,1000,1,3154.357507,1000,0,3154.51379882354,3155.51379164942,3156.6723667,NaN,NaN,0,NaN,0.842636200000015
SX102,prp,0,7,1,face_02,object_13,irrelevant,letter,center,letter_14,1.5,0.916666666666667,0.232,1.732,offset,1000,24,3173.28003546424,NaN,0,cr,2,3175.0121402,1000,1,3175.8434423,1000,0,3174.78002761977,3175.27999513953,3176.1883861,NaN,NaN,3161.7136663673,NaN,0.831302099999903
SX102,prp,0,7,2,face_02,object_13,irrelevant,letter,left,letter_08,1,1.25,0.232,1.232,offset,1000,38,3176.19664188212,NaN,0,cr,2,3177.4287597,1000,1,3178.0043601,1000,0,3177.19662452471,3178.19660792471,3179.438471,NaN,NaN,0,NaN,0.57560040000044
SX102,prp,0,7,3,face_02,object_13,non-target,face,right,face_16,1,0.8,0.466,1.466,offset,1000,126,3179.44657822471,NaN,0,cr,2,3180.9126438,1000,1,3181.3398571,1000,0,3180.44654719695,3181.446515292,3182.2383273,NaN,NaN,0,NaN,0.427213299999949
SX102,prp,0,7,4,face_02,object_13,non-target,object,left,object_15,0.5,1.95,0,0.5,offset,1100,225,3182.24649811177,NaN,0,cr,1,3182.7474586,1100,1,3183.8834764,1100,0,3182.74648832471,3184.24646020189,3186.1883746,NaN,NaN,0,NaN,1.13601779999999
SX102,prp,0,7,5,face_02,object_13,target,face,right,face_02,0.5,1.71666666666667,0.232,0.732,offset,1100,112,3186.19641091977,3186.9332585,1,hit,1,3186.9285927,1100,1,3187.4476833,1,1100,3186.69640064447,3188.196366592,3189.9047982,NaN,NaN,0,0.736847580234098,0.519090599999799
SX102,prp,0,7,6,face_02,object_13,irrelevant,letter,right,letter_12,1,1.85,0,0,onset,1000,62,3189.91299482471,NaN,0,cr,2,3189.9138379,1100,0,3190.6656188,1100,0,3190.91296982965,3191.91293554942,3193.7547908,NaN,NaN,0,NaN,0.751780900000085
SX102,prp,0,7,7,face_02,object_13,irrelevant,letter,right,letter_03,1,0.75,0,1,offset,1000,53,3193.76289077224,NaN,0,cr,2,3194.763789,1000,1,3195.6146508,1000,0,3194.7628710673,3195.76287542965,3196.5047809,NaN,NaN,0,NaN,0.850861800000075
SX102,prp,0,7,8,face_02,object_13,irrelevant,letter,center,letter_10,0.5,1.21666666666667,0,0.5,offset,1100,20,3196.51282842471,NaN,0,cr,1,3197.0139806,1100,1,3197.4088339,1100,0,3197.012814892,3198.51277049695,3199.7213211,NaN,NaN,0,NaN,0.394853299999795
SX102,prp,0,7,9,face_02,object_13,irrelevant,false_font,center,false_font_08,1.5,1.28333333333333,0.232,1.732,offset,1100,138,3199.72946262471,NaN,0,cr,1,3201.4616734,1100,1,3201.8917757,1100,0,3201.22937269695,3201.72937611977,3203.0047428,NaN,NaN,0,NaN,0.430102299999817
SX102,prp,0,7,10,face_02,object_13,non-target,face,left,face_12,0.5,1.46666666666667,0.232,0.732,offset,1100,102,3203.01266997718,NaN,0,cr,1,3203.7447829,1100,1,3204.2094024,1100,0,3203.512652892,3205.01266535436,3206.4710423,NaN,NaN,0,NaN,0.464619500000026
SX102,prp,0,7,11,face_02,object_13,target,object,center,object_13,1.5,0.733333333333333,0.466,1.966,offset,1000,203,3206.47926298706,3207.1237054,1,hit,2,3208.4453026,1000,1,3208.8487142,1,1000,3207.97922924447,3208.47921383459,3209.2042811,NaN,NaN,0,0.644442412937678,0.403411599999799
SX102,prp,0,7,12,face_02,object_13,non-target,object,center,object_08,1.5,1.48333333333333,0,1.5,offset,1100,198,3209.21252214942,NaN,0,cr,1,3210.7136614,1100,1,3211.2673917,1100,0,3210.71248450189,3211.21247640189,3212.687615,NaN,NaN,0,NaN,0.553730300000097
SX102,prp,0,7,13,face_02,object_13,non-target,object,center,object_10,0.5,1.71666666666667,0,0,onset,1100,200,3212.69577452471,NaN,0,cr,1,3212.6966656,1100,1,3213.1028043,1100,0,3213.19576907718,3214.69571884942,3216.404126,NaN,NaN,0,NaN,0.406138700000156
SX102,prp,0,7,14,face_02,object_13,irrelevant,letter,right,letter_02,1.5,1.91666666666667,0,1.5,offset,1000,52,3216.41237247718,NaN,0,cr,2,3217.9133108,1000,1,3218.3574318,1000,0,3217.91232557718,3218.41233997718,3220.3207279,NaN,NaN,0,NaN,0.444120999999996
SX102,prp,0,7,15,face_02,object_13,irrelevant,letter,left,letter_07,0.5,1.16666666666667,0.116,0.616,offset,1000,37,3220.32892624447,NaN,0,cr,2,3220.9450572,1000,1,3221.4283871,1000,0,3220.82890550189,3222.32888341977,3223.4874002,NaN,NaN,0,NaN,0.483329899999717
SX102,prp,0,7,16,face_02,object_13,target,face,center,face_02,1,1.35,0,1,offset,1000,72,3223.495507192,3224.1394246,1,hit,2,3224.4967503,1000,1,3225.0227025,1,1000,3224.49548376424,3225.49546467718,3226.8371926,NaN,NaN,0,0.643917407996469,0.52595220000012
SX102,prp,0,7,17,face_02,object_13,irrelevant,letter,right,letter_08,1.5,0.783333333333333,0.116,1.616,offset,1000,58,3226.84549092471,NaN,0,cr,2,3228.4617335,1000,1,3229.3303981,1000,0,3228.34539180189,3228.845393092,3229.6206278,NaN,NaN,0,NaN,0.868664600000102
SX102,prp,0,7,18,face_02,object_13,non-target,object,center,object_18,0.5,1.23333333333333,0.466,0.466,onset,1000,208,3229.62873412965,NaN,0,cr,2,3230.094935,1000,1,3230.6157348,1000,0,3230.12870037224,3231.62866491977,3232.8539005,NaN,NaN,0,NaN,0.520799800000077
SX102,prp,0,7,19,face_02,object_13,non-target,face,right,face_15,0.5,1.03333333333333,0.466,0.966,offset,1000,125,3232.86195912471,NaN,0,cr,2,3233.8281318,1000,1,3234.2484152,1000,0,3233.36199783953,3234.86191562471,3235.8869908,NaN,NaN,0,NaN,0.420283400000244
SX102,prp,0,7,20,face_02,object_13,irrelevant,letter,right,letter_15,1.5,1.33333333333333,0.116,1.616,offset,1100,65,3235.89522077718,NaN,0,cr,1,3237.5113535,1100,1,3238.0336973,1100,0,3237.39518812471,3237.89517092471,3239.2202882,NaN,NaN,0,NaN,0.522343799999817
SX102,prp,0,7,21,face_02,object_13,target,object,right,object_13,1,1.73333333333333,0.232,1.232,offset,1100,243,3239.22848073953,3239.856642,1,hit,1,3240.4606709,1100,1,3240.9174029,1,1100,3240.22845451977,3241.22843861671,3242.9534887,NaN,NaN,0,0.628161260467095,0.456732000000102
SX102,prp,0,7,22,face_02,object_13,irrelevant,false_font,center,false_font_18,1,1.95,0.466,1.466,offset,1000,148,3242.96171125436,NaN,0,cr,2,3244.4278008,1000,1,3244.9854215,1000,0,3243.96169239695,3244.96167408212,3246.90358,NaN,NaN,0,NaN,0.557620699999916
SX102,prp,0,7,23,face_02,object_13,non-target,object,center,object_04,1,0.783333333333333,0,0,onset,1000,194,3246.91162414942,NaN,0,cr,2,3246.9126261,1000,1,3247.5556857,1000,0,3247.91159244447,3248.91158357718,3249.6868421,NaN,NaN,0,NaN,0.643059600000015
SX102,prp,0,7,24,face_02,object_13,irrelevant,false_font,center,false_font_05,0.5,1.2,0,0,onset,1100,135,3249.69489952471,NaN,0,cr,1,3249.6957536,1100,1,3250.255446,1100,0,3250.194881292,3251.69484382471,3252.886713,NaN,NaN,0,NaN,0.559692400000131
SX102,prp,0,7,25,face_02,object_13,irrelevant,false_font,center,false_font_15,0.5,0.983333333333333,0.116,0.116,onset,1100,145,3252.89481570189,NaN,0,cr,1,3253.0110139,1100,1,3254.2526509,1100,0,3253.39486054447,3254.8947600593,3255.869829,NaN,NaN,0,NaN,1.24163700000008
SX102,prp,0,7,26,face_02,object_13,irrelevant,false_font,center,false_font_17,1.5,1.53333333333333,0,1.5,offset,1100,147,3255.87816047718,NaN,0,cr,1,3257.3790503,1100,1,3257.8974044,1100,0,3257.37804542471,3257.87803317718,3259.4033244,NaN,NaN,0,NaN,0.518354100000124
SX102,prp,0,7,27,face_02,object_13,non-target,object,center,object_11,0.5,1.85,0.116,0.116,onset,1000,201,3259.41133267224,NaN,0,cr,2,3259.5275313,1000,1,3260.0196277,1000,0,3259.91132422965,3261.41127762471,3263.2532329,NaN,NaN,0,NaN,0.492096399999809
SX102,prp,0,7,28,face_02,object_13,irrelevant,false_font,left,false_font_10,1,0.966666666666667,0,1,offset,1100,160,3263.26124812471,NaN,0,cr,1,3264.2622544,1100,1,3264.9416234,1100,0,3264.26121763459,3265.26119274447,3266.2197496,NaN,NaN,0,NaN,0.679368999999951
SX102,prp,0,7,29,face_02,object_13,non-target,object,center,object_12,1,1.85,0.466,1.466,offset,1100,202,3266.22790093459,NaN,0,cr,1,3267.6941164,1100,1,3268.0606881,1100,0,3267.22781214447,3268.22777899695,3270.0695926,NaN,NaN,0,NaN,0.366571699999895
SX102,prp,0,7,30,face_02,object_13,non-target,object,center,object_12,0.5,1.9,0.116,0.116,onset,1100,202,3270.07774083953,NaN,0,cr,1,3270.1939527,1100,1,3270.6676073,1100,0,3270.57773283953,3272.07769992471,3273.9694608,NaN,NaN,0,NaN,0.473654599999918
SX102,prp,0,7,31,face_02,object_13,non-target,object,center,object_12,1.5,0.966666666666667,0,1.5,offset,1000,202,3273.97764000189,NaN,0,cr,2,3275.4785943,1000,1,3276.067771,1000,0,3275.47762207224,3275.97760512471,3276.9360351,NaN,NaN,0,NaN,0.589176699999825
SX102,prp,0,7,32,face_02,object_13,non-target,object,right,object_17,1,1.73333333333333,0.466,0.466,onset,1100,247,3276.94424414447,NaN,0,cr,1,3277.4104352,1100,1,3278.2024221,1100,0,3277.944227992,3278.94419877718,3280.66926,NaN,NaN,0,NaN,0.791986900000211
SX102,prp,0,7,33,face_02,object_13,irrelevant,letter,right,letter_17,1,1.7,0.116,0.116,onset,1100,67,3280.67749743459,NaN,0,cr,1,3280.7935892,1100,1,3281.2235481,1100,0,3281.6774602593,3282.67743514447,3284.3693528,NaN,NaN,0,NaN,0.429958899999747
SX102,prp,0,7,34,face_02,object_13,non-target,face,center,face_14,0.5,0.9,0.116,0.116,onset,1100,84,3284.37740147718,NaN,0,cr,1,3284.4935613,1100,1,3285.4256486,1100,0,3284.87739662471,3286.37735140683,3287.2691475,NaN,NaN,0,NaN,0.932087300000148
SX102,prp,0,7,35,face_02,object_13,non-target,face,center,face_16,1.5,1,0.116,0.116,onset,1000,86,3287.27738662471,NaN,0,cr,2,3287.3937331,1000,1,3288.0388171,1000,0,3288.777297592,3289.277292692,3290.2692608,NaN,NaN,0,NaN,0.64508399999977
SX102,prp,0,7,36,face_02,object_13,non-target,object,center,object_09,1.5,0.833333333333333,0.116,0.116,onset,1100,199,3290.27726347718,NaN,0,cr,1,3290.3935473,1100,1,3291.3535384,1100,0,3291.77723151977,3292.27721513459,3293.1024152,NaN,NaN,0,NaN,0.959991100000025
SX102,prp,0,8,1,face_17,object_03,target,face,center,face_17,1,0.716666666666667,0,1,offset,1100,87,3307.89350753953,3309.6113831,1,hit,1,3308.8945237,0,NaN,NaN,1,0,3308.89348768706,3309.89351657224,3310.6019103,NaN,NaN,3298.47707676235,1.71787556046684,NaN
SX102,prp,0,8,2,face_17,object_03,non-target,object,right,object_16,1,1.03333333333333,0.232,1.232,offset,1000,246,3310.610159392,NaN,0,cr,2,3311.842311,1100,0,3311.0046015,1100,1000,3311.61009767224,3312.61006854447,3313.6351662,NaN,NaN,0,NaN,NaN
SX102,prp,0,8,3,face_17,object_03,irrelevant,false_font,center,false_font_03,1,0.733333333333333,0,0,onset,1100,133,3313.64338247718,NaN,0,cr,1,3313.6442485,1100,1,3314.2373326,1100,0,3314.64334512965,3315.64332484447,3316.3684097,NaN,NaN,0,NaN,0.593084100000397
SX102,prp,0,8,4,face_17,object_03,non-target,face,center,face_13,1,1.28333333333333,0.116,1.116,offset,1100,83,3316.37664186424,NaN,0,cr,1,3317.4926941,1100,1,3317.9394607,1100,0,3317.376612392,3318.37659643953,3319.6516555,NaN,NaN,0,NaN,0.446766600000046
SX102,prp,0,8,5,face_17,object_03,non-target,object,center,object_05,0.5,1.41666666666667,0.466,0.966,offset,1100,195,3319.65990727718,NaN,0,cr,1,3320.6259758,1100,1,3321.0096996,1100,0,3320.1599487673,3321.65985513459,3323.068339,NaN,NaN,0,NaN,0.383723800000098
SX102,prp,0,8,6,face_17,object_03,irrelevant,letter,center,letter_17,0.5,0.85,0.116,0.116,onset,1100,27,3323.07648054447,NaN,0,cr,1,3323.1927329,1100,1,3323.9477466,1100,0,3323.57647772471,3325.07652363459,3325.9181633,NaN,NaN,0,NaN,0.755013699999836
SX102,prp,0,8,7,face_17,object_03,non-target,face,center,face_03,0.5,1.33333333333333,0.232,0.232,onset,1100,73,3325.92646227224,NaN,0,cr,1,3326.1585577,1100,1,3326.5853655,1100,0,3326.42640398212,3327.92636463459,3329.2515178,NaN,NaN,0,NaN,0.426807800000006
SX102,prp,0,8,8,face_17,object_03,irrelevant,false_font,right,false_font_03,0.5,0.716666666666667,0.466,0.966,offset,1000,173,3329.25967214942,NaN,0,cr,2,3330.225862,1000,1,3330.6316397,1000,0,3329.75964821177,3331.25962127718,3331.9680963,NaN,NaN,0,NaN,0.405777700000272
SX102,prp,0,8,9,face_17,object_03,non-target,face,center,face_09,0.5,0.916666666666667,0.116,0.616,offset,1000,79,3331.9762815673,NaN,0,cr,2,3332.5923983,1000,1,3333.0873723,1000,0,3332.47625612471,3333.9762353673,3334.884722,NaN,NaN,0,NaN,0.494974000000184
SX102,prp,0,8,10,face_17,object_03,irrelevant,false_font,center,false_font_07,1.5,1.26666666666667,0.466,1.966,offset,1000,137,3334.89286301177,NaN,0,cr,2,3336.8590054,1000,1,3337.1353722,1000,0,3336.39282598706,3336.89281013648,3338.1512807,NaN,NaN,0,NaN,0.276366799999778
SX102,prp,0,8,11,face_17,object_03,irrelevant,letter,right,letter_17,1.5,0.833333333333333,0.232,1.732,offset,1000,67,3338.15945557224,NaN,0,cr,2,3339.8917442,1000,1,3340.3156644,1000,0,3339.65942051482,3340.15940507718,3340.9846797,NaN,NaN,0,NaN,0.423920199999884
SX102,prp,0,8,12,face_17,object_03,non-target,face,right,face_19,1.5,0.716666666666667,0.116,1.616,offset,1100,129,3340.99271805436,NaN,0,cr,1,3342.6089587,1100,1,3343.0313304,1100,0,3342.49268732471,3342.99267838212,3343.7010754,NaN,NaN,0,NaN,0.422371699999985
SX102,prp,0,8,13,face_17,object_03,target,face,center,face_17,1,1.21666666666667,0,1,offset,1000,87,3343.70932688706,3344.4848267,1,hit,2,3344.7102877,1000,1,3345.234575,1,1000,3344.70931532471,3345.70927698706,3346.9176751,NaN,NaN,0,0.775499812938051,0.524287299999742
SX102,prp,0,8,14,face_17,object_03,non-target,object,center,object_07,1,0.7,0,1,offset,1000,197,3346.92590904942,NaN,0,cr,2,3347.9269635,1000,1,3348.3493524,1000,0,3347.92589303459,3348.9258625593,3349.6176251,NaN,NaN,0,NaN,0.422388899999987
SX102,prp,0,8,15,face_17,object_03,irrelevant,letter,center,letter_15,1.5,1.76666666666667,0,0,onset,1100,25,3349.62584313953,NaN,0,cr,1,3349.6269548,1100,1,3350.2183485,1100,0,3351.12581143953,3351.62579254942,3353.3843578,NaN,NaN,0,NaN,0.591393700000026
SX102,prp,0,8,16,face_17,object_03,non-target,object,left,object_11,0.5,1.08333333333333,0.466,0.466,onset,1000,221,3353.39242538706,NaN,0,cr,2,3353.8585601,1000,1,3354.172307,1000,0,3353.89241898706,3355.39238182471,3356.4675825,NaN,NaN,0,NaN,0.313746899999842
SX102,prp,0,8,17,face_17,object_03,non-target,face,center,face_05,0.5,1.43333333333333,0.466,0.966,offset,1100,75,3356.47568922965,NaN,0,cr,1,3357.4419532,1100,1,3357.8817642,1100,0,3356.97567867718,3358.47565188212,3359.9009462,NaN,NaN,0,NaN,0.439810999999736
SX102,prp,0,8,18,face_17,object_03,irrelevant,false_font,left,false_font_06,1,1.63333333333333,0,0,onset,1100,156,3359.90894357718,NaN,0,cr,1,3359.9097768,1100,1,3360.4246231,1100,0,3360.90890630189,3361.9088916673,3363.5341033,NaN,NaN,0,NaN,0.514846300000045
SX102,prp,0,8,19,face_17,object_03,non-target,face,center,face_09,1.5,0.916666666666667,0.466,1.966,offset,1100,79,3363.54217887718,NaN,0,cr,1,3365.5084485,1100,1,3365.9866241,1100,0,3365.04214517718,3365.54213711482,3366.4506732,NaN,NaN,0,NaN,0.478175599999759
SX102,prp,0,8,20,face_17,object_03,irrelevant,letter,left,letter_04,1,0.75,0.116,1.116,offset,1100,34,3366.45877883953,NaN,0,cr,1,3367.5750266,1100,1,3367.9805362,1100,0,3367.45874646424,3368.45873098706,3369.2006685,NaN,NaN,0,NaN,0.405509600000187
SX102,prp,0,8,21,face_17,object_03,irrelevant,false_font,right,false_font_11,1,1.43333333333333,0.466,0.466,onset,1100,181,3369.20871919695,NaN,0,cr,1,3369.674945,1100,1,3370.1375913,1100,0,3370.20869394447,3371.20872522965,3372.633746,NaN,NaN,0,NaN,0.46264629999996
SX102,prp,0,8,22,face_17,object_03,non-target,face,center,face_19,0.5,1.11666666666667,0.466,0.466,onset,1000,89,3372.64196343953,NaN,0,cr,2,3373.1080955,1000,1,3373.7393251,1000,0,3373.14195199695,3374.64191998706,3375.7505042,NaN,NaN,0,NaN,0.631229599999642
SX102,prp,0,8,23,face_17,object_03,irrelevant,false_font,left,false_font_14,0.5,0.766666666666667,0.232,0.232,onset,1100,164,3375.75856084447,NaN,0,cr,1,3375.9907997,1100,1,3376.5263241,1100,0,3376.25854244942,3377.75851023953,3378.5170709,NaN,NaN,0,NaN,0.535524399999758
SX102,prp,0,8,24,face_17,object_03,non-target,object,left,object_01,1,1.01666666666667,0.232,1.232,offset,1100,211,3378.52515109695,NaN,0,cr,1,3379.7573741,1100,1,3380.3806803,1100,0,3379.52512644942,3380.52515409695,3381.5335851,NaN,NaN,0,NaN,0.623306200000115
SX102,prp,0,8,25,face_17,object_03,target,object,left,object_03,1,1.6,0.232,0.232,onset,1000,213,3381.54176007718,3382.2453565,1,hit,2,3381.7738394,1000,1,3382.6536729,1,1000,3382.54173172965,3383.54170618212,3385.1334421,NaN,NaN,0,0.703596422821192,0.879833500000132
SX102,prp,0,8,26,face_17,object_03,non-target,face,right,face_02,1,1.2,0.232,1.232,offset,1000,112,3385.14172167718,NaN,0,cr,2,3386.3738631,1000,1,3386.9133938,1000,0,3386.14164742471,3387.14162092471,3388.333586,NaN,NaN,0,NaN,0.539530699999887
SX102,prp,0,8,27,face_17,object_03,non-target,object,center,object_11,1.5,1.13333333333333,0.116,0.116,onset,1000,201,3388.34159037224,NaN,0,cr,2,3388.4576691,1000,1,3388.8705562,1000,0,3389.84155904942,3390.34154953459,3391.4666682,NaN,NaN,0,NaN,0.412887099999807
SX102,prp,0,8,28,face_17,object_03,irrelevant,letter,center,letter_16,1,0.766666666666667,0.116,0.116,onset,1000,26,3391.47485382471,NaN,0,cr,2,3391.5910692,1000,1,3391.9566708,1000,0,3392.47483227718,3393.47480095436,3394.2332724,NaN,NaN,0,NaN,0.365601599999991
SX102,prp,0,8,29,face_17,object_03,irrelevant,letter,left,letter_13,1,1,0,0,onset,1000,43,3394.24148304447,NaN,0,cr,2,3394.2425635,1000,1,3394.7042829,1000,0,3395.24143871482,3396.241397892,3397.2333598,NaN,NaN,0,NaN,0.46171940000022
SX102,prp,0,8,30,face_17,object_03,non-target,face,center,face_12,0.5,0.85,0.116,0.116,onset,1000,82,3397.24138862965,NaN,0,cr,2,3397.3576167,1000,1,3397.787295,1000,0,3397.74136213953,3399.24132280683,3400.0831931,NaN,NaN,0,NaN,0.429678299999978
SX102,prp,0,8,31,face_17,object_03,irrelevant,letter,center,letter_08,1,1.81666666666667,0,0,onset,1100,18,3400.09131383953,NaN,0,cr,1,3400.0922378,1100,1,3401.1145031,1100,0,3401.09128264447,3402.09125670189,3403.8998325,NaN,NaN,0,NaN,1.02226530000007
SX102,prp,0,8,32,face_17,object_03,irrelevant,letter,center,letter_14,1.5,1,0.116,0.116,onset,1100,24,3403.90789362471,NaN,0,cr,1,3404.0239938,1100,1,3404.4772802,1100,0,3405.40786181482,3405.90785012471,3406.8997448,NaN,NaN,0,NaN,0.453286400000252
SX102,prp,0,8,33,face_17,object_03,irrelevant,letter,right,letter_09,0.5,1.18333333333333,0.116,0.616,offset,1100,59,3406.90782801482,NaN,0,cr,1,3407.5238846,1100,1,3407.9445452,1100,0,3407.40780984447,3408.90777382471,3410.0829287,NaN,NaN,0,NaN,0.420660599999792
SX102,prp,0,8,34,face_17,object_03,non-target,object,center,object_02,1,1.75,0.116,1.116,offset,1000,192,3410.09106815436,NaN,0,cr,2,3411.2072279,1000,1,3411.7694951,1000,0,3411.09105405436,3412.09101867907,3413.8329732,NaN,NaN,0,NaN,0.562267199999951
SX102,prp,0,8,35,face_17,object_03,irrelevant,false_font,center,false_font_03,0.5,1.41666666666667,0,0.5,offset,1000,133,3413.84098797718,NaN,0,cr,2,3414.3421222,1000,1,3415.1555254,1000,0,3414.34098023953,3415.84093934942,3417.2493794,NaN,NaN,0,NaN,0.813403199999811
SX102,prp,0,9,1,face_13,object_11,irrelevant,false_font,center,false_font_15,1.5,0.7,0.232,1.732,offset,1000,145,3438.02375861177,NaN,0,cr,2,3439.7558599,0,NaN,NaN,0,0,3439.52375301482,3440.02368711177,3440.715514,NaN,NaN,3426.80738154447,NaN,NaN
SX102,prp,0,9,2,face_13,object_11,non-target,object,left,object_14,0.5,1.41666666666667,0.232,0.732,offset,1100,224,3440.72368957718,NaN,0,cr,1,3441.4558578,1100,1,3442.3025534,1100,0,3441.223718792,3442.72362798212,3444.1320448,NaN,NaN,0,NaN,0.846695599999748
SX102,prp,0,9,3,face_13,object_11,irrelevant,false_font,right,false_font_01,0.5,1.33333333333333,0.232,0.232,onset,1000,171,3444.14026878212,NaN,0,cr,2,3444.3724868,1000,1,3445.7475247,1000,0,3444.64031141977,3446.14021972965,3447.4654095,NaN,NaN,0,NaN,1.37503790000028
SX102,prp,0,9,4,face_13,object_11,irrelevant,letter,center,letter_10,1,1.08333333333333,0.116,0.116,onset,1100,20,3447.47351900683,NaN,0,cr,1,3447.5896708,1100,1,3448.6495219,1100,0,3448.47349254942,3449.47346390189,3450.5487652,NaN,NaN,0,NaN,1.05985109999983
SX102,prp,0,9,5,face_13,object_11,target,face,right,face_13,1,1.5,0.116,1.116,offset,1100,123,3450.55678283953,3451.2504877,1,hit,1,3451.6729353,1100,1,3452.3305098,1,1100,3451.55676353459,3452.556726092,3454.0484631,NaN,NaN,0,0.693704860467278,0.65757450000001
SX102,prp,0,9,6,face_13,object_11,irrelevant,false_font,right,false_font_11,1.5,1.96666666666667,0.466,0.466,onset,1100,181,3454.05669024447,NaN,0,cr,1,3454.5228166,1100,1,3454.928569,1100,0,3455.55671062471,3456.05665387718,3458.0150745,NaN,NaN,0,NaN,0.405752399999983
SX102,prp,0,9,7,face_13,object_11,irrelevant,false_font,left,false_font_13,0.5,1.95,0.116,0.116,onset,1100,163,3458.02331272965,NaN,0,cr,1,3458.1394401,1100,1,3458.6205968,1100,0,3458.52325618706,3460.02323231977,3461.9650336,NaN,NaN,0,NaN,0.481156700000156
SX102,prp,0,9,8,face_13,object_11,non-target,face,center,face_06,1,1.88333333333333,0,1,offset,1000,76,3461.97320142471,NaN,0,cr,2,3462.9741981,1000,1,3463.5124698,1000,0,3462.97314314447,3463.973120892,3465.8482552,NaN,NaN,0,NaN,0.538271699999768
SX102,prp,0,9,9,face_13,object_11,non-target,face,center,face_12,1,1.46666666666667,0.116,0.116,onset,1000,82,3465.85641692471,NaN,0,cr,2,3465.9724871,1000,1,3467.3962593,1000,0,3466.85639617224,3467.85635654942,3469.3149497,NaN,NaN,0,NaN,1.42377220000026
SX102,prp,0,9,10,face_13,object_11,irrelevant,letter,center,letter_02,1.5,1.2,0.116,1.616,offset,1100,12,3469.32298800189,NaN,0,cr,1,3470.9392475,1100,1,3471.8046192,1100,0,3470.82296309695,3471.32294483953,3472.5147457,NaN,NaN,0,NaN,0.865371700000196
SX102,prp,0,9,11,face_13,object_11,non-target,object,left,object_05,1.5,1.6,0,1.5,offset,1100,215,3472.522921892,NaN,0,cr,1,3474.0241207,1100,1,3474.5003613,1100,0,3474.02288414942,3474.52288172471,3476.1146181,NaN,NaN,0,NaN,0.476240599999983
SX102,prp,0,9,12,face_13,object_11,non-target,object,center,object_15,0.5,0.7,0.116,0.616,offset,1100,205,3476.12283032165,NaN,0,cr,1,3476.7390233,1100,1,3477.2795715,1100,0,3476.62287144447,3478.12278140189,3478.8145852,NaN,NaN,0,NaN,0.540548200000103
SX102,prp,0,9,13,face_13,object_11,irrelevant,false_font,right,false_font_14,1.5,1.75,0.466,1.966,offset,1000,184,3478.822779492,NaN,0,cr,2,3480.7890825,1000,1,3481.1435331,1000,0,3480.32282151177,3480.82271130189,3482.5646458,NaN,NaN,0,NaN,0.354450599999836
SX102,prp,0,9,14,face_13,object_11,non-target,face,center,face_18,1,1.5,0,0,onset,1100,88,3482.57268937718,NaN,0,cr,1,3482.5736295,1100,1,3483.6502553,1100,0,3483.57271134447,3484.57263022471,3486.0646265,NaN,NaN,0,NaN,1.07662579999987
SX102,prp,0,9,15,face_13,object_11,non-target,face,center,face_11,0.5,0.916666666666667,0.232,0.732,offset,1000,81,3486.07260157224,3486.8172602,1,fa,2,3486.804782,1000,1,3487.680519,1,1000,3486.57258072471,3488.07254688706,3488.9809595,NaN,NaN,0,0.744658627762419,0.875736999999845
SX102,prp,0,9,16,face_13,object_11,non-target,object,right,object_18,1.5,1.28333333333333,0,0,onset,1100,248,3488.98919938706,NaN,0,cr,1,3488.9903186,1100,1,3489.5664645,1100,0,3490.48915852965,3490.98915142471,3492.2643829,NaN,NaN,0,NaN,0.576145900000029
SX102,prp,0,9,17,face_13,object_11,irrelevant,false_font,left,false_font_17,1.5,1.73333333333333,0.232,1.732,offset,1000,167,3492.2724562673,NaN,0,cr,2,3494.0044904,1000,1,3494.331488,1000,0,3493.772404292,3494.27240661482,3495.9976529,NaN,NaN,0,NaN,0.326997599999686
SX102,prp,0,9,18,face_13,object_11,target,object,right,object_11,1.5,1.66666666666667,0.232,0.232,onset,1100,241,3496.00568553953,3496.745621,1,hit,1,3496.2380118,1100,1,3497.2862012,1,1100,3497.50565774942,3498.00565392471,3499.6640286,NaN,NaN,0,0.739935460467223,1.04818939999996
SX102,prp,0,9,19,face_13,object_11,non-target,object,center,object_05,1.5,1.41666666666667,0.116,0.116,onset,1100,195,3499.67226540189,NaN,0,cr,1,3499.7884918,1100,1,3500.5442799,1100,0,3501.17223522965,3501.67222592965,3503.0806336,NaN,NaN,0,NaN,0.755788100000245
SX102,prp,0,9,20,face_13,object_11,non-target,object,right,object_04,1.5,0.983333333333333,0.232,0.232,onset,1100,234,3503.08891701977,NaN,0,cr,1,3503.3209835,1100,1,3503.7466251,1100,0,3504.58882798706,3505.08886192471,3506.0640007,NaN,NaN,0,NaN,0.42564160000029
SX102,prp,0,9,21,face_13,object_11,irrelevant,false_font,center,false_font_07,1,1.06666666666667,0.116,0.116,onset,1000,137,3506.07212087718,NaN,0,cr,2,3506.1882491,1000,1,3506.8625,1000,0,3507.07209489695,3508.0720799673,3509.1305572,NaN,NaN,0,NaN,0.674250900000061
SX102,prp,0,9,22,face_13,object_11,irrelevant,letter,left,letter_09,0.5,0.95,0.466,0.466,onset,1100,39,3509.13871074942,NaN,0,cr,1,3509.6048673,1100,1,3510.0272977,1100,0,3509.6386972593,3511.13866278706,3512.0805208,NaN,NaN,0,NaN,0.422430399999939
SX102,prp,0,9,23,face_13,object_11,non-target,object,center,object_16,1.5,1.6,0,0,onset,1000,206,3512.08863843953,NaN,0,cr,2,3512.08961,1000,1,3512.6651245,1000,0,3513.58860904447,3514.08859070683,3515.6805352,NaN,NaN,0,NaN,0.575514499999827
SX102,prp,0,9,24,face_13,object_11,non-target,object,right,object_03,1.5,1.65,0,1.5,offset,1000,233,3515.68855527224,NaN,0,cr,2,3517.1896075,1000,1,3518.0774789,1000,0,3517.18852742471,3517.68851972471,3519.3303478,NaN,NaN,0,NaN,0.887871400000222
SX102,prp,0,9,25,face_13,object_11,irrelevant,false_font,left,false_font_01,1,1.73333333333333,0.466,0.466,onset,1100,151,3519.33846199695,NaN,0,cr,1,3519.8045696,1100,1,3520.1194233,1100,0,3520.33846027718,3521.33842458212,3523.0635585,NaN,NaN,0,NaN,0.314853700000185
SX102,prp,0,9,26,face_13,object_11,irrelevant,letter,center,letter_09,1.5,1.05,0,0,onset,1000,19,3523.07171672471,NaN,0,cr,2,3523.072556,1000,1,3523.7934653,1000,0,3524.57169081977,3525.07167022165,3526.1134878,NaN,NaN,0,NaN,0.72090930000013
SX102,prp,0,9,27,face_13,object_11,non-target,object,right,object_05,0.5,0.933333333333333,0.466,0.466,onset,1000,235,3526.12164182965,NaN,0,cr,2,3526.5877367,1000,1,3527.0272658,1000,0,3526.62162724447,3528.12164591977,3529.0467858,NaN,NaN,0,NaN,0.439529100000073
SX102,prp,0,9,28,face_13,object_11,non-target,object,left,object_17,1.5,1.8,0.232,0.232,onset,1100,227,3529.05490945436,NaN,0,cr,1,3529.2871132,1100,1,3529.7835352,1100,0,3530.55491337718,3531.05486237718,3532.8467864,NaN,NaN,0,NaN,0.496422000000166
SX102,prp,0,9,29,face_13,object_11,irrelevant,letter,center,letter_16,1.5,0.783333333333333,0.116,0.116,onset,1000,26,3532.85482147224,NaN,0,cr,2,3532.970898,1000,1,3533.563246,1000,0,3534.35482351977,3534.85482487224,3535.6298516,NaN,NaN,0,NaN,0.592348000000129
SX102,prp,0,9,30,face_13,object_11,irrelevant,false_font,center,false_font_18,1.5,1.23333333333333,0.466,0.466,onset,1000,148,3535.63809451977,NaN,0,cr,2,3536.1041428,1000,1,3536.7172233,1000,0,3537.13804129695,3537.63804792471,3538.8632111,NaN,NaN,0,NaN,0.613080500000251
SX102,prp,0,9,31,face_13,object_11,irrelevant,false_font,center,false_font_08,0.5,1.21666666666667,0,0,onset,1100,138,3538.87133045436,NaN,0,cr,1,3538.8723862,1100,1,3539.7125045,1100,0,3539.371323592,3540.87129823953,3542.0797503,NaN,NaN,0,NaN,0.840118299999631
SX102,prp,0,9,32,face_13,object_11,non-target,face,center,face_14,1,1.56666666666667,0.116,0.116,onset,1100,84,3542.08793368212,NaN,0,cr,1,3542.2040052,1100,1,3543.2802087,1100,0,3543.08791308706,3544.08787750189,3545.6463841,NaN,NaN,0,NaN,1.07620349999979
SX102,prp,0,9,33,face_13,object_11,target,object,left,object_11,0.5,1.55,0.466,0.466,onset,1100,221,3545.654547692,3546.5121965,1,hit,1,3546.1207485,1100,1,3546.9716155,1,1100,3546.15449641671,3547.65452922471,3549.1962233,NaN,NaN,0,0.857648807996156,0.850867000000108
SX102,prp,0,9,34,face_13,object_11,irrelevant,false_font,center,false_font_03,1,1.6,0.116,1.116,offset,1100,133,3549.20442518706,NaN,0,cr,1,3550.3205092,1100,1,3550.7052317,1100,0,3550.2044089673,3551.20438254447,3552.7962593,NaN,NaN,0,NaN,0.384722499999953
SX102,prp,0,9,35,face_13,object_11,non-target,object,center,object_19,1,0.7,0,0,onset,1000,209,3552.80435123953,NaN,0,cr,2,3552.8053905,1000,1,3553.4235777,1000,0,3553.80431758706,3554.80429401977,3555.4960686,NaN,NaN,0,NaN,0.618187199999738
SX102,prp,0,10,1,face_20,object_18,irrelevant,false_font,right,false_font_04,0.5,0.766666666666667,0.116,0.116,onset,1100,174,3576.470448492,NaN,0,cr,1,3576.5865381,1100,1,3578.5771584,1100,0,3576.9704495673,3578.47040867224,3579.2289812,NaN,NaN,3562.820765592,NaN,1.99062030000005
SX102,prp,0,10,2,face_20,object_18,non-target,face,left,face_10,1,1.48333333333333,0.232,1.232,offset,1100,100,3579.237046292,NaN,0,cr,1,3580.4691725,1100,1,3580.9265564,1100,0,3580.237017692,3581.23699807224,3582.7121189,NaN,NaN,0,NaN,0.457383900000423
SX102,prp,0,10,3,face_20,object_18,irrelevant,letter,center,letter_18,0.5,0.933333333333333,0.232,0.232,onset,1000,28,3582.72031211482,NaN,0,cr,2,3582.9525543,1000,1,3583.4184443,1000,0,3583.22028463953,3584.72024750683,3585.645352,NaN,NaN,0,NaN,0.465889999999945
SX102,prp,0,10,4,face_20,object_18,irrelevant,false_font,left,false_font_09,1.5,1.08333333333333,0.466,0.466,onset,1000,159,3585.65355905436,NaN,0,cr,2,3586.1198484,1000,1,3586.4684802,1000,0,3587.1535274593,3587.65351389695,3588.7287495,NaN,NaN,0,NaN,0.348631800000021
SX102,prp,0,10,5,face_20,object_18,irrelevant,letter,center,letter_15,0.5,1.15,0.116,0.116,onset,1000,25,3588.73682707718,NaN,0,cr,2,3588.853107,0,NaN,NaN,0,0,3589.23680823459,3590.73677999695,3591.8787149,NaN,NaN,0,NaN,NaN
SX102,prp,0,10,6,face_20,object_18,target,face,left,face_20,1.5,0.966666666666667,0.232,0.232,onset,1100,110,3591.88675412471,3592.7244465,1,hit,1,3592.1189285,1100,1,3593.0812291,1,1100,3593.38671936235,3593.88669224447,3594.8450984,NaN,NaN,0,0.837692375291681,0.962300600000162
SX102,prp,0,10,7,face_20,object_18,irrelevant,false_font,center,false_font_15,1,0.716666666666667,0.116,1.116,offset,1100,145,3594.85335377224,NaN,0,cr,1,3595.9696512,1100,1,3596.3311881,1100,0,3595.85331636424,3596.85329624447,3597.5616969,NaN,NaN,0,NaN,0.361536899999919
SX102,prp,0,10,8,face_20,object_18,non-target,object,center,object_04,1.5,1.26666666666667,0.466,1.966,offset,1000,194,3597.569949892,NaN,0,cr,2,3599.5361665,1000,1,3599.9334598,1000,0,3599.06990781177,3599.5698941593,3600.8284688,NaN,NaN,0,NaN,0.397293300000001
SX102,prp,0,10,9,face_20,object_18,non-target,face,center,face_01,1.5,1.43333333333333,0.116,1.616,offset,1000,71,3600.836537792,NaN,0,cr,2,3602.4526917,1000,1,3602.815187,1000,0,3602.33649417718,3602.83648932471,3604.2616309,NaN,NaN,0,NaN,0.362495300000319
SX102,prp,0,10,10,face_20,object_18,non-target,object,center,object_15,1.5,0.783333333333333,0.232,1.732,offset,1000,205,3604.26979507224,NaN,0,cr,2,3606.0020158,1000,1,3606.4793973,1000,0,3605.76971594825,3606.26972582165,3607.0450239,NaN,NaN,0,NaN,0.477381499999865
SX102,prp,0,10,11,face_20,object_18,non-target,object,center,object_01,1.5,1.05,0.232,0.232,onset,1100,191,3607.05305403459,NaN,0,cr,1,3607.2851101,1100,1,3607.7734233,1100,0,3608.55301690189,3609.053005992,3610.0948799,NaN,NaN,0,NaN,0.488313199999993
SX102,prp,0,10,12,face_20,object_18,target,object,center,object_18,0.5,1.61666666666667,0,0,onset,1000,208,3610.102972492,3611.0464974,1,hit,2,3610.1039382,1000,1,3610.6691827,1000,1,3610.60297092471,3612.10293392471,3613.7113134,NaN,NaN,0,0.943524907996562,0.565244500000063
SX102,prp,0,10,13,face_20,object_18,irrelevant,letter,right,letter_06,0.5,1.63333333333333,0,0.5,offset,1100,56,3613.71955532965,NaN,0,cr,1,3614.2209057,1100,1,3614.8604286,1100,0,3614.21954412165,3615.71951062471,3617.3447337,NaN,NaN,0,NaN,0.639522899999974
SX102,prp,0,10,14,face_20,object_18,irrelevant,letter,left,letter_06,1,0.866666666666667,0,1,offset,1100,36,3617.35281217224,NaN,0,cr,1,3618.3539058,1100,1,3618.9214354,1100,0,3618.35278533953,3619.35275133459,3620.211253,NaN,NaN,0,NaN,0.567529599999943
SX102,prp,0,10,15,face_20,object_18,irrelevant,letter,center,letter_11,1.5,1.58333333333333,0.466,1.966,offset,1100,21,3620.21945141977,NaN,0,cr,1,3622.1856937,1100,1,3622.6603554,1100,0,3621.71937532965,3622.219360992,3623.7944924,NaN,NaN,0,NaN,0.47466170000007
SX102,prp,0,10,16,face_20,object_18,irrelevant,letter,center,letter_05,1,1.98333333333333,0.232,0.232,onset,1100,15,3623.80265153953,NaN,0,cr,1,3624.034797,1100,1,3625.2575861,1100,0,3624.80267490683,3625.80261147224,3627.7778622,NaN,NaN,0,NaN,1.22278910000023
SX102,prp,0,10,17,face_20,object_18,target,face,right,face_20,1.5,1.01666666666667,0.466,0.466,onset,1100,130,3627.78588952965,3628.6093761,1,hit,1,3628.2520106,1100,1,3629.0433782,1,1100,3629.28585800189,3629.78584557224,3630.7942312,NaN,NaN,0,0.823486570350269,0.79136759999983
SX102,prp,0,10,18,face_20,object_18,non-target,face,center,face_05,1,1.43333333333333,0.232,1.232,offset,1100,75,3630.80247870189,NaN,0,cr,1,3632.0345686,1100,1,3632.4373954,1100,0,3631.80247141977,3632.80241319883,3634.2277,NaN,NaN,0,NaN,0.40282679999973
SX102,prp,0,10,19,face_20,object_18,non-target,face,left,face_09,1.5,0.8,0,0,onset,1100,99,3634.23573911977,NaN,0,cr,1,3634.2365741,1100,1,3634.8821836,1100,0,3635.73570323459,3636.23569232965,3637.0275897,NaN,NaN,0,NaN,0.645609500000319
SX102,prp,0,10,20,face_20,object_18,irrelevant,letter,right,letter_15,1,1.2,0.116,1.116,offset,1000,65,3637.03567089695,NaN,0,cr,2,3638.1517713,1000,1,3638.841122,1000,0,3638.03567707224,3639.03561624942,3640.2275475,NaN,NaN,0,NaN,0.689350699999977
SX102,prp,0,10,21,face_20,object_18,non-target,object,left,object_05,0.5,1.33333333333333,0.466,0.966,offset,1000,215,3640.23560147224,NaN,0,cr,2,3641.2016765,1000,1,3641.7901106,1000,0,3640.73557258212,3642.23554942965,3643.5607075,NaN,NaN,0,NaN,0.588434100000086
SX102,prp,0,10,22,face_20,object_18,irrelevant,false_font,center,false_font_19,0.5,1.15,0.466,0.966,offset,1000,149,3643.568847092,NaN,0,cr,2,3644.5349823,1000,1,3645.1003526,1000,0,3644.06883518212,3645.56879854447,3646.710594,NaN,NaN,0,NaN,0.565370299999813
SX102,prp,0,10,23,face_20,object_18,irrelevant,false_font,right,false_font_09,1,1.83333333333333,0.232,0.232,onset,1100,179,3646.71877299695,NaN,0,cr,1,3646.9510585,1100,1,3647.7557034,1100,0,3647.7187485673,3648.71872617718,3650.5437996,NaN,NaN,0,NaN,0.804644900000312
SX102,prp,0,10,24,face_20,object_18,non-target,object,center,object_07,0.5,1.03333333333333,0.466,0.466,onset,1100,197,3650.55200944447,NaN,0,cr,1,3651.0183308,1100,1,3652.9591394,1100,0,3651.05199688706,3652.55197521482,3653.5770496,NaN,NaN,0,NaN,1.94080859999985
SX102,prp,0,10,25,face_20,object_18,non-target,object,center,object_03,1.5,0.966666666666667,0.232,0.232,onset,1000,193,3653.58526770683,NaN,0,cr,2,3653.8173385,1000,1,3654.3631113,1000,0,3655.0852335593,3655.58521426424,3656.5437785,NaN,NaN,0,NaN,0.545772800000123
SX102,prp,0,10,26,face_20,object_18,irrelevant,false_font,left,false_font_03,0.5,0.733333333333333,0,0.5,offset,1100,153,3656.55187511977,NaN,0,cr,1,3657.052994,1100,1,3657.6434109,1100,0,3657.05184765436,3658.55181962965,3659.276906,NaN,NaN,0,NaN,0.590416900000037
SX102,prp,0,10,27,face_20,object_18,non-target,object,center,object_16,0.5,1.16666666666667,0.232,0.732,offset,1100,206,3659.28513682471,NaN,0,cr,1,3660.0174173,1100,1,3660.5121335,1100,0,3659.78512857224,3661.28509722965,3662.4435965,NaN,NaN,0,NaN,0.494716199999857
SX102,prp,0,10,28,face_20,object_18,non-target,object,right,object_12,1,1.58333333333333,0.232,1.232,offset,1100,242,3662.45173150189,NaN,0,cr,1,3663.6838358,1100,1,3664.3655143,1100,0,3663.45171561977,3664.45168574447,3666.0267668,NaN,NaN,0,NaN,0.681678500000089
SX102,prp,0,10,29,face_20,object_18,non-target,face,right,face_18,1,1.41666666666667,0,1,offset,1000,128,3666.03498143953,NaN,0,cr,2,3667.0359848,1100,0,3667.8643203,1100,0,3667.03495808706,3668.03492244447,3669.4434018,NaN,NaN,0,NaN,0.828335500000321
SX102,prp,0,10,30,face_20,object_18,irrelevant,false_font,center,false_font_12,0.5,1,0.116,0.116,onset,1000,142,3669.45157331977,NaN,0,cr,2,3669.5677508,1100,0,3670.5263841,1100,0,3669.95154785436,3671.45151987718,3672.443249,NaN,NaN,0,NaN,0.958633300000201
SX102,prp,0,10,31,face_20,object_18,target,object,right,object_18,1,1.7,0.116,1.116,offset,1100,248,3672.45149082965,3673.4151268,1,hit,1,3673.5675309,1100,1,3674.0693657,1,1100,3673.45147133953,3674.45144212471,3676.1431639,NaN,NaN,0,0.963635970350424,0.501834800000324
SX102,prp,0,10,32,face_20,object_18,irrelevant,letter,center,letter_03,1,0.733333333333333,0,1,offset,1100,13,3676.15143601177,NaN,0,cr,1,3677.1526181,1100,1,3678.1900889,1100,0,3677.15143493953,3678.15135410683,3678.8765077,NaN,NaN,0,NaN,1.03747079999994
SX102,prp,0,10,33,face_20,object_18,non-target,object,right,object_04,0.5,0.75,0.116,0.616,offset,1000,234,3678.88467513459,NaN,0,cr,2,3679.5009971,1000,1,3679.8850843,1000,0,3679.38466832471,3680.88462491482,3681.6265157,NaN,NaN,0,NaN,0.384087200000067
SX102,prp,0,10,34,face_20,object_18,non-target,object,left,object_08,1,1.11666666666667,0,1,offset,1100,218,3681.63461433459,NaN,0,cr,1,3682.6356124,1100,1,3683.1513587,1100,0,3682.63458017718,3683.63455589695,3684.7430173,NaN,NaN,0,NaN,0.515746300000046
SX102,prp,0,10,35,face_20,object_18,target,object,center,object_18,1,1.25,0,1,offset,1100,208,3684.751227392,3685.420539,1,hit,1,3685.7520915,1100,1,3686.247436,1,1100,3685.75117817224,3686.75114867718,3687.9929124,NaN,NaN,0,0.669311607996406,0.495344500000101
SX102,prp,0,10,36,face_20,object_18,target,face,center,face_20,1,0.716666666666667,0.232,0.232,onset,1100,90,3688.00113312471,3688.9835352,1,hit,1,3688.2333866,1100,1,3689.7943472,1,1100,3689.00110627224,3690.00107799695,3690.7094814,NaN,NaN,0,0.982402075291702,1.56096060000027
SX102,prp,0,10,37,face_20,object_18,irrelevant,false_font,center,false_font_16,1,0.95,0,1,offset,1000,146,3690.71772762471,NaN,0,cr,2,3691.7187846,1000,1,3692.2661265,1000,0,3691.71771252965,3692.7176761673,3693.6595035,NaN,NaN,0,NaN,0.547341899999992
SX102,prp,0,10,38,face_20,object_18,non-target,face,left,face_02,1,0.816666666666667,0.116,1.116,offset,1000,92,3693.66765812471,NaN,0,cr,2,3694.7837038,1000,1,3695.3120978,1000,0,3694.667623792,3695.667609692,3696.4760587,NaN,NaN,0,NaN,0.528394000000389
SX102,prp,0,11,1,letter_06,false_font_12,irrelevant,face,right,face_18,0.5,0.716666666666667,0.232,0.232,onset,1100,128,3717.76709548706,NaN,0,cr,1,3717.9993296,1100,1,3718.5411334,1100,0,3718.26707313459,3719.76702524942,3720.4756065,NaN,NaN,3706.3673564673,NaN,0.541803800000253
SX102,prp,0,11,2,letter_06,false_font_12,non-target,false_font,left,false_font_16,1.5,0.816666666666667,0,0,onset,1000,166,3720.48369061554,NaN,0,cr,2,3720.4857084,1000,1,3721.3235029,1000,0,3721.98364407718,3722.48362899695,3723.2922332,NaN,NaN,0,NaN,0.8377945000002
SX102,prp,0,11,3,letter_06,false_font_12,non-target,letter,center,letter_12,0.5,1.98333333333333,0.466,0.466,onset,1000,22,3723.30029171977,NaN,0,cr,2,3723.7663825,1000,1,3724.4304799,1000,0,3723.80028037718,3725.300231992,3727.2753805,NaN,NaN,0,NaN,0.664097400000173
SX102,prp,0,11,4,letter_06,false_font_12,non-target,false_font,center,false_font_20,1.5,1.5,0.116,0.116,onset,1100,150,3727.28352392471,NaN,0,cr,1,3727.399602,1100,1,3728.1950128,1100,0,3728.78348152965,3729.28347253459,3730.7752845,NaN,NaN,0,NaN,0.7954107999999
SX102,prp,0,11,5,letter_06,false_font_12,target,false_font,right,false_font_12,0.5,0.716666666666667,0.466,0.966,offset,1000,182,3730.78344367224,3731.6714231,1,hit,2,3731.7496077,1000,1,3732.2261114,1,1000,3731.28342792965,3732.78339972965,3733.4918066,NaN,NaN,0,0.88797942776273,0.476503699999739
SX102,prp,0,11,6,letter_06,false_font_12,irrelevant,object,center,object_06,0.5,0.866666666666667,0.116,0.116,onset,1100,196,3733.50003458706,NaN,0,cr,1,3733.6161507,1100,1,3734.3334878,1100,0,3734.00002304942,3735.49998334942,3736.358525,NaN,NaN,0,NaN,0.717337099999895
SX102,prp,0,11,7,letter_06,false_font_12,irrelevant,object,left,object_20,1,1.2,0.116,1.116,offset,1100,230,3736.36663998212,NaN,0,cr,1,3737.4828112,1100,1,3738.003114,1100,0,3737.36659048589,3738.36658395436,3739.5585025,NaN,NaN,0,NaN,0.520302800000081
SX102,prp,0,11,8,letter_06,false_font_12,non-target,false_font,left,false_font_09,1,1.63333333333333,0.232,1.232,offset,1100,159,3739.56655953953,NaN,0,cr,1,3740.7987829,1100,1,3741.1694672,1100,0,3740.56654027718,3741.56652117718,3743.191598,NaN,NaN,0,NaN,0.370684299999994
SX102,prp,0,11,9,letter_06,false_font_12,irrelevant,face,right,face_02,1.5,0.716666666666667,0,0,onset,1100,112,3743.19979895436,NaN,0,cr,1,3743.2008715,1100,1,3743.9141133,1100,0,3744.699777792,3745.19976332471,3745.9081765,NaN,NaN,0,NaN,0.713241799999651
SX102,prp,0,11,10,letter_06,false_font_12,non-target,false_font,center,false_font_20,1,1.26666666666667,0.466,1.466,offset,1000,150,3745.916420492,NaN,0,cr,2,3747.3826121,1000,1,3747.7690701,1000,0,3746.91638864447,3747.91636848212,3749.1749903,NaN,NaN,0,NaN,0.386457999999948
SX102,prp,0,11,11,letter_06,false_font_12,non-target,false_font,right,false_font_10,1.5,0.816666666666667,0.466,1.966,offset,1000,180,3749.18298694942,NaN,0,cr,2,3751.1492246,1000,1,3751.4043275,1000,0,3750.68296647718,3751.18294439695,3751.9915276,NaN,NaN,0,NaN,0.255102900000111
SX102,prp,0,11,12,letter_06,false_font_12,irrelevant,face,left,face_08,0.5,1.56666666666667,0.232,0.732,offset,1000,98,3751.99959669695,NaN,0,cr,2,3752.7316352,1000,1,3753.0864489,1000,0,3752.49958082965,3753.99953800189,3755.5580574,NaN,NaN,0,NaN,0.35481370000025
SX102,prp,0,11,13,letter_06,false_font_12,non-target,letter,center,letter_16,1.5,0.816666666666667,0.116,0.116,onset,1100,26,3755.56617693953,NaN,0,cr,1,3755.6823527,1100,1,3756.5390623,1100,0,3757.06615027224,3757.56613581977,3758.3746388,NaN,NaN,0,NaN,0.856709599999704
SX102,prp,0,11,14,letter_06,false_font_12,irrelevant,object,center,object_09,1.5,1.88333333333333,0.116,0.116,onset,1100,199,3758.38278053953,NaN,0,cr,1,3758.4989492,1100,1,3758.8944451,1100,0,3759.88275121977,3760.38273712471,3762.257857,NaN,NaN,0,NaN,0.395495900000242
SX102,prp,0,11,15,letter_06,false_font_12,target,letter,center,letter_06,1.5,0.816666666666667,0.466,0.466,onset,1000,16,3762.2660702673,3762.8620377,1,hit,2,3762.7321935,1000,1,3763.3080766,1,1000,3763.76597972965,3764.26597234447,3765.074418,NaN,NaN,0,0.595967432704583,0.575883099999828
SX102,prp,0,11,16,letter_06,false_font_12,irrelevant,object,right,object_19,0.5,0.766666666666667,0,0,onset,1000,249,3765.08261529695,NaN,0,cr,2,3765.0836338,1000,1,3765.7550149,1000,0,3765.58259991177,3767.08256668212,3767.8411412,NaN,NaN,0,NaN,0.671381099999962
SX102,prp,0,11,17,letter_06,false_font_12,non-target,letter,center,letter_12,1,1.08333333333333,0.232,1.232,offset,1000,22,3767.84922291977,NaN,0,cr,2,3769.0814,1000,1,3769.4561758,1000,0,3768.84919602471,3769.84916427718,3770.9244187,NaN,NaN,0,NaN,0.374775799999952
SX102,prp,0,11,18,letter_06,false_font_12,irrelevant,object,center,object_07,1,1.53333333333333,0,0,onset,1000,197,3770.93253501977,NaN,0,cr,2,3770.9333915,1000,1,3771.3411408,1000,0,3771.93246211977,3772.93243317718,3774.4576462,NaN,NaN,0,NaN,0.407749299999978
SX102,prp,0,11,19,letter_06,false_font_12,irrelevant,face,left,face_09,1.5,0.85,0.466,1.966,offset,1100,99,3774.46572134942,NaN,0,cr,1,3776.4317775,1100,1,3776.7714848,1100,0,3775.96569792471,3776.46567555436,3777.3075556,NaN,NaN,0,NaN,0.3397073000001
SX102,prp,0,11,20,letter_06,false_font_12,non-target,letter,center,letter_11,1.5,0.75,0.116,0.116,onset,1000,21,3777.31565497718,NaN,0,cr,2,3777.4317895,1000,1,3777.9790239,1000,0,3778.81561764942,3779.3156049593,3780.0574778,NaN,NaN,0,NaN,0.547234399999979
SX102,prp,0,11,21,letter_06,false_font_12,irrelevant,face,right,face_20,1,1.06666666666667,0.232,1.232,offset,1100,130,3780.06559381977,NaN,0,cr,1,3781.2977106,1100,1,3781.6730223,1100,0,3781.06556638212,3782.06555002471,3783.1240356,NaN,NaN,0,NaN,0.375311700000111
SX102,prp,0,11,22,letter_06,false_font_12,non-target,letter,left,letter_10,1.5,1.13333333333333,0.232,0.232,onset,1000,40,3783.13218237412,NaN,0,cr,2,3783.3643391,1000,1,3783.8570631,1000,0,3784.63221090988,3785.13214422471,3786.2572306,NaN,NaN,0,NaN,0.492723999999725
