sub_id,task,is_practice,block,trial,target_01,target_02,task_relevance,category,orientation,identity,duration,stim_jit,SOA,onset_SOA,SOA_lock,pitch,texture,vis_stim_time,time_of_resp_vis,has_response_vis,trial_response_vis,aud_stim_buff,aud_stim_time,aud_resp,trial_accuracy_aud,time_of_resp_aud,trial_first_button_press,trial_second_button_press,fix_time,JitOnset,trial_end,wrong_key,wrong_key_timestemp,TargetScreenOnset,RT_vis,RT_aud
SX101,prp,0,1,1,letter_19,false_font_20,non-target,false_font,center,false_font_10,1.5,0.916666666666667,0.116,0.116,onset,1100,140,4663.36149003548,NaN,0,cr,1,4663.4805132,0,NaN,NaN,0,0,4664.86146374715,4665.36146222949,4666.2699773,NaN,NaN,4655.52833009461,NaN,NaN
SX101,prp,0,1,2,letter_19,false_font_20,non-target,false_font,left,false_font_19,1.5,1,0,0,onset,1100,169,4666.2780687,NaN,0,cr,1,4666.2829712,1100,1,4666.3938059,1100,0,4667.77812852949,4668.27804834716,4669.2698081,NaN,NaN,0,NaN,0.110834699999941
SX101,prp,0,1,3,letter_19,false_font_20,non-target,letter,right,letter_02,0.5,1.31666666666667,0,0,onset,1100,52,4669.27802767066,NaN,0,cr,1,4669.278979,1100,1,4670.2290726,1100,0,4669.77801033548,4671.27797817664,4672.5865449,NaN,NaN,0,NaN,0.9500936000004
SX101,prp,0,1,4,letter_19,false_font_20,non-target,false_font,left,false_font_06,1,0.85,0.116,1.116,offset,1000,156,4672.59460833548,NaN,0,cr,2,4673.7110115,0,NaN,NaN,0,0,4673.59460459416,4674.59455928847,4675.4363335,NaN,NaN,0,NaN,NaN
SX101,prp,0,1,5,letter_19,false_font_20,non-target,letter,center,letter_05,1,1.25,0,0,onset,1100,15,4675.46122174715,NaN,0,cr,1,4675.4631271,1100,1,4676.580038,1100,0,4676.46118775314,4677.46117568248,4678.7029369,NaN,NaN,0,NaN,1.11691090000022
SX101,prp,0,1,6,letter_19,false_font_20,irrelevant,face,left,face_13,1,1.75,0,1,offset,1000,103,4678.71114435898,NaN,0,cr,2,4679.7122263,1000,1,4680.2532141,1000,0,4679.71111270015,4680.71110050599,4682.4529751,NaN,NaN,0,NaN,0.540987800000039
SX101,prp,0,1,7,letter_19,false_font_20,irrelevant,object,center,object_17,0.5,1.38333333333333,0.466,0.966,offset,1000,207,4682.46104272964,NaN,0,cr,2,4683.4271371,1000,1,4683.9930116,1000,0,4682.96103851781,4684.46100327081,4685.8361736,NaN,NaN,0,NaN,0.565874499999154
SX101,prp,0,1,8,letter_19,false_font_20,irrelevant,object,left,object_09,1.5,0.866666666666667,0.466,1.966,offset,1100,219,4685.84431434715,NaN,0,cr,1,4687.8103875,0,NaN,NaN,0,0,4687.34427263548,4687.84426312949,4688.7028357,NaN,NaN,0,NaN,NaN
SX101,prp,0,1,9,letter_19,false_font_20,irrelevant,object,left,object_11,1,1.2,0,1,offset,1100,221,4688.71091815299,NaN,0,cr,1,4689.7120998,1100,1,4689.019132,1100,0,4689.71088653548,4690.71086089431,4691.9025935,NaN,NaN,0,NaN,NaN
SX101,prp,0,1,10,letter_19,false_font_20,non-target,false_font,right,false_font_16,1,1.7,0.232,0.232,onset,1100,186,4691.91085960015,NaN,0,cr,1,4692.143009,1100,1,4692.6339362,1100,0,4692.91080395314,4693.91078408832,4695.6027174,NaN,NaN,0,NaN,0.490927199999533
SX101,prp,0,1,11,letter_19,false_font_20,irrelevant,object,center,object_19,0.5,1.1,0.466,0.966,offset,1000,209,4695.61074831781,NaN,0,cr,2,4696.5768179,1000,1,4696.9841681,1000,0,4696.11072947664,4697.61069396482,4698.7025698,NaN,NaN,0,NaN,0.40735020000011
SX101,prp,0,1,12,letter_19,false_font_20,irrelevant,object,right,object_20,1,1.28333333333333,0,1,offset,1000,250,4698.71066799431,NaN,0,cr,2,4699.7116888,1000,1,4700.005176,1000,1100,4699.71065122365,4700.71062330015,4701.985733,NaN,NaN,0,NaN,0.293487199999618
SX101,prp,0,1,13,letter_19,false_font_20,irrelevant,face,right,face_17,1.5,1.33333333333333,0,1.5,offset,1100,127,4701.99393424132,NaN,0,cr,1,4703.4951336,1100,1,4704.0182448,1100,0,4703.49389371197,4703.99388464132,4705.3191502,NaN,NaN,0,NaN,0.523111199999221
SX101,prp,0,1,14,letter_19,false_font_20,non-target,letter,right,letter_12,1,1.25,0.466,0.466,onset,1000,62,4705.32718268248,4706.2601535,1,fa,2,4705.7933424,0,NaN,NaN,1,0,4706.32717181183,4707.32714321183,4708.5690535,NaN,NaN,0,0.932970817516434,NaN
SX101,prp,0,1,15,letter_19,false_font_20,non-target,false_font,center,false_font_07,1,1.7,0.116,1.116,offset,1100,137,4708.57711630015,4709.418026,1,fa,1,4709.6931585,1100,1,4710.5108059,1,1100,4709.57709240015,4710.57706880599,4712.2687985,NaN,NaN,0,0.840909699852091,0.817647400000169
SX101,prp,0,1,16,letter_19,false_font_20,irrelevant,face,right,face_15,1.5,0.866666666666667,0,0,onset,1000,125,4712.27702077066,NaN,0,cr,2,4712.2781824,1000,1,4713.3471637,1000,0,4713.77699065299,4714.27697836482,4715.1355602,NaN,NaN,0,NaN,1.0689812999999
SX101,prp,0,1,17,letter_19,false_font_20,irrelevant,object,left,object_14,0.5,1.21666666666667,0.232,0.732,offset,1100,224,4715.14362768832,NaN,0,cr,1,4715.875897,1100,1,4716.5057307,1100,0,4715.64361268248,4717.14358101781,4718.3521113,NaN,NaN,0,NaN,0.629833699999836
SX101,prp,0,1,18,letter_19,false_font_20,irrelevant,face,right,face_01,0.5,1.6,0.466,0.966,offset,1100,111,4718.36021617664,NaN,0,cr,1,4719.3263059,1100,1,4719.859768,1100,0,4718.86019449431,4720.36017416482,4721.9518944,NaN,NaN,0,NaN,0.533462100000179
SX101,prp,0,1,19,letter_19,false_font_20,target,false_font,right,false_font_20,1,0.816666666666667,0.232,0.232,onset,1000,190,4721.96013570015,4722.6977,1,hit,2,4722.1921774,0,NaN,NaN,1,0,4722.96010425898,4723.96008311197,4724.7685428,NaN,NaN,0,0.737564299851329,NaN
SX101,prp,0,1,20,letter_19,false_font_20,irrelevant,object,center,object_04,0.5,0.816666666666667,0.466,0.466,onset,1000,194,4724.77673530015,NaN,0,cr,2,4725.2427734,1100,0,4725.9357215,1100,1000,4725.27671802949,4726.77668954132,4727.5850963,NaN,NaN,0,NaN,0.692948099999739
SX101,prp,0,1,21,letter_19,false_font_20,non-target,false_font,right,false_font_07,1.5,1.26666666666667,0,0,onset,1100,177,4727.59333508832,4730.1759941,1,fa,1,4727.5945588,1100,1,4728.1637025,1100,1,4729.09329468248,4729.59328838832,4730.8516867,NaN,NaN,0,2.58265901167761,0.569143699999586
SX101,prp,0,1,22,letter_19,false_font_20,irrelevant,object,right,object_11,0.5,0.866666666666667,0,0.5,offset,1000,241,4730.85991772365,NaN,0,cr,2,4731.3611027,1000,1,4732.0667589,1000,0,4731.35991020015,4732.85988162949,4733.7183336,NaN,NaN,0,NaN,0.705656200000703
SX101,prp,0,1,23,letter_19,false_font_20,non-target,letter,center,letter_17,1.5,0.866666666666667,0.116,0.116,onset,1100,27,4733.72652578832,NaN,0,cr,1,4733.8426839,1100,1,4734.8311422,1100,0,4735.22648240015,4735.72647788248,4736.5850895,NaN,NaN,0,NaN,0.988458299999365
SX101,prp,0,1,24,letter_19,false_font_20,target,letter,left,letter_19,0.5,1.41666666666667,0.116,0.616,offset,1100,49,4736.59312283533,NaN,0,miss,1,4737.2093602,1100,1,4737.7537516,1100,0,4737.09309482964,4738.59308018832,4740.0014747,NaN,NaN,0,NaN,0.544391399999768
SX101,prp,0,1,25,letter_19,false_font_20,non-target,false_font,left,false_font_03,0.5,0.966666666666667,0.116,0.616,offset,1100,153,4740.00969911781,NaN,0,cr,1,4740.625912,1100,1,4741.0116892,1100,0,4740.50969287066,4742.00965475898,4742.9682415,NaN,NaN,0,NaN,0.385777199999211
SX101,prp,0,1,26,letter_19,false_font_20,irrelevant,object,right,object_10,1.5,0.75,0.232,1.732,offset,1000,240,4742.97630275898,NaN,0,cr,2,4744.7085326,1000,1,4745.1820487,1000,0,4744.47626972949,4744.97624946482,4745.7181852,NaN,NaN,0,NaN,0.473516100000779
SX101,prp,0,1,27,letter_19,false_font_20,irrelevant,face,left,face_18,1,0.716666666666667,0,0,onset,1000,108,4745.72623407664,NaN,0,cr,2,4745.7273018,1000,1,4746.4216489,1000,0,4746.72620984715,4747.72618129431,4748.4346667,NaN,NaN,0,NaN,0.694347100000414
SX101,prp,0,1,28,letter_19,false_font_20,non-target,letter,center,letter_05,1,0.8,0.232,0.232,onset,1100,15,4748.44284637066,NaN,0,cr,1,4748.6749682,1100,1,4750.0197715,1100,0,4749.44282004715,4750.44279037664,4751.2347357,NaN,NaN,0,NaN,1.34480330000042
SX101,prp,0,1,29,letter_19,false_font_20,irrelevant,face,center,face_13,0.5,0.783333333333333,0,0,onset,1000,83,4751.24277868248,NaN,0,cr,2,4751.2437324,1000,1,4751.7927924,1000,0,4751.74276571183,4753.24273746482,4754.0179233,NaN,NaN,0,NaN,0.549059999999372
SX101,prp,0,1,30,letter_19,false_font_20,irrelevant,face,center,face_08,1,0.733333333333333,0.232,1.232,offset,1000,78,4754.02604508248,NaN,0,cr,2,4755.2581066,1000,1,4755.8640124,1000,0,4755.02601766482,4756.02597662395,4756.7512658,NaN,NaN,0,NaN,0.605905800000073
SX101,prp,0,1,31,letter_19,false_font_20,non-target,letter,center,letter_01,1,1.76666666666667,0.232,1.232,offset,1000,11,4756.75932052365,NaN,0,cr,2,4757.991638,1100,0,4758.1982221,1100,0,4757.75930087066,4758.75926344715,4760.5178846,NaN,NaN,0,NaN,0.206584099999418
SX101,prp,0,1,32,letter_19,false_font_20,non-target,letter,right,letter_03,1,0.733333333333333,0.232,1.232,offset,1000,53,4760.52590305299,NaN,0,cr,2,4761.7580652,1000,1,4762.2990247,1000,0,4761.52585749431,4762.52583267081,4763.2510059,NaN,NaN,0,NaN,0.540959500000099
SX101,prp,0,1,33,letter_19,false_font_20,non-target,letter,right,letter_08,1.5,1.73333333333333,0.466,0.466,onset,1100,58,4763.25916184132,NaN,0,cr,1,4763.7254159,1100,1,4764.320991,1100,0,4764.75912090015,4765.25911444716,4766.9841778,NaN,NaN,0,NaN,0.595575099999223
SX101,prp,0,1,34,letter_19,false_font_20,non-target,letter,right,letter_13,1,1.05,0.116,1.116,offset,1000,63,4766.99240234715,4768.1960788,1,fa,2,4768.1086424,1100,0,4769.1070435,1,1100,4767.99237172979,4768.99235093548,4770.0340758,NaN,NaN,0,1.20367645284477,0.998401100000592
SX101,prp,0,2,1,letter_03,false_font_01,irrelevant,object,right,object_04,1,1.9,0,0,onset,1100,234,4797.92501452949,NaN,0,cr,1,4797.9259663,1100,1,4798.5891383,1100,0,4798.92498786482,4799.92496348832,4801.8167143,NaN,NaN,4784.02534202365,NaN,0.663171999999577
SX101,prp,0,2,2,letter_03,false_font_01,irrelevant,face,center,face_14,1.5,0.933333333333333,0.466,0.466,onset,1000,84,4801.82491632365,NaN,0,cr,2,4802.291145,1000,1,4802.9261447,1000,0,4803.32488017664,4803.82487390599,4804.750109,NaN,NaN,0,NaN,0.634999699999753
SX101,prp,0,2,3,letter_03,false_font_01,non-target,letter,left,letter_19,1.5,0.733333333333333,0.232,1.732,offset,1100,49,4804.75817910599,NaN,0,cr,1,4806.490251,1100,1,4807.3280212,1100,0,4806.25815877066,4806.75814128832,4807.4832632,NaN,NaN,0,NaN,0.837770199999795
SX101,prp,0,2,4,letter_03,false_font_01,irrelevant,object,left,object_16,1.5,1.05,0.116,0.116,onset,1100,226,4807.49145241781,NaN,0,cr,1,4807.6076702,1100,1,4808.7609629,1100,0,4808.99141051781,4809.49140417665,4810.5333,NaN,NaN,0,NaN,1.15329269999984
SX101,prp,0,2,5,letter_03,false_font_01,non-target,letter,left,letter_20,1.5,0.95,0,1.5,offset,1100,50,4810.54138054716,NaN,0,cr,1,4812.0424315,1100,1,4812.5100136,1100,0,4812.04134612365,4812.54133912949,4813.4831656,NaN,NaN,0,NaN,0.467582100000072
SX101,prp,0,2,6,letter_03,false_font_01,irrelevant,object,center,object_07,1.5,1.16666666666667,0.232,1.732,offset,1000,197,4813.49132623533,NaN,0,cr,2,4815.2235599,1000,1,4815.678357,1000,0,4814.99128567066,4815.49125617665,4816.6497834,NaN,NaN,0,NaN,0.454797100000178
SX101,prp,0,2,7,letter_03,false_font_01,irrelevant,face,left,face_06,1,1,0.466,0.466,onset,1100,96,4816.65790068832,NaN,0,cr,1,4817.1241454,1100,1,4817.5290643,1100,0,4817.65788272949,4818.65786807066,4819.6497548,NaN,NaN,0,NaN,0.404918899999757
SX101,prp,0,2,8,letter_03,false_font_01,non-target,letter,left,letter_13,1.5,0.9,0.232,1.732,offset,1000,43,4819.65783354715,NaN,0,cr,2,4821.3899942,1000,1,4821.8086693,1000,0,4821.15779463548,4821.65778250599,4822.549529,NaN,NaN,0,NaN,0.418675099999746
SX101,prp,0,2,9,letter_03,false_font_01,irrelevant,face,left,face_17,1.5,1.31666666666667,0.466,1.966,offset,1000,107,4822.55776812949,NaN,0,cr,2,4824.523962,1000,1,4825.0249165,1000,0,4824.05773130015,4824.55772124716,4825.866285,NaN,NaN,0,NaN,0.500954499999352
SX101,prp,0,2,10,letter_03,false_font_01,target,letter,center,letter_03,1,1.08333333333333,0.232,1.232,offset,1000,13,4825.87434653548,4826.8458882,1,hit,2,4827.1065314,1100,0,4827.5916238,1,1100,4826.87433192949,4827.87430875314,4828.9493573,NaN,NaN,0,0.971541664523102,0.485092400000212
SX101,prp,0,2,11,letter_03,false_font_01,non-target,letter,center,letter_10,1,0.833333333333333,0.466,0.466,onset,1100,20,4828.95762262365,NaN,0,cr,1,4829.4238363,1100,1,4830.507946,1100,0,4829.95759141781,4830.95757388248,4831.7828998,NaN,NaN,0,NaN,1.08410969999932
SX101,prp,0,2,12,letter_03,false_font_01,target,false_font,left,false_font_01,1,1.13333333333333,0,1,offset,1100,151,4831.79087524132,4832.4346988,1,hit,1,4832.7920005,1100,1,4833.3086793,1,1100,4832.79087740015,4833.79084356482,4834.915882,NaN,NaN,0,0.643823558683835,0.516678800000591
SX101,prp,0,2,13,letter_03,false_font_01,non-target,letter,center,letter_07,1.5,1.3,0.232,0.232,onset,1100,17,4834.92414450599,NaN,0,cr,1,4835.1562988,1100,1,4835.855976,1100,0,4836.42410638248,4836.92409971781,4838.2159138,NaN,NaN,0,NaN,0.699677200000224
SX101,prp,0,2,14,letter_03,false_font_01,non-target,false_font,left,false_font_09,0.5,1.48333333333333,0.466,0.966,offset,1000,159,4838.22407485299,NaN,0,cr,2,4839.1901734,1000,1,4839.8582672,1000,0,4838.72404984715,4840.22402055314,4841.6992915,NaN,NaN,0,NaN,0.668093799999951
SX101,prp,0,2,15,letter_03,false_font_01,non-target,letter,right,letter_10,1.5,0.983333333333333,0,1.5,offset,1000,60,4841.70730887664,NaN,0,cr,2,4843.2085345,1000,1,4843.8279512,1000,0,4843.20728307081,4843.70726011197,4844.6825289,NaN,NaN,0,NaN,0.619416700000329
SX101,prp,0,2,16,letter_03,false_font_01,irrelevant,face,center,face_19,1.5,0.75,0.232,1.732,offset,1000,89,4844.69063960599,NaN,0,cr,2,4846.4228119,1000,1,4846.8712897,1000,0,4846.19054414132,4846.69054035898,4847.432504,NaN,NaN,0,NaN,0.448477799999637
SX101,prp,0,2,17,letter_03,false_font_01,irrelevant,face,center,face_05,0.5,1.46666666666667,0.466,0.966,offset,1000,75,4847.44051105898,NaN,0,cr,2,4848.4066473,1000,1,4848.9348507,1000,0,4847.94050487664,4849.44048287066,4850.8991097,NaN,NaN,0,NaN,0.528203400000166
SX101,prp,0,2,18,letter_03,false_font_01,non-target,false_font,center,false_font_16,1.5,0.866666666666667,0,1.5,offset,1000,146,4850.90711203533,NaN,0,cr,2,4852.4082913,1000,1,4852.9747767,1000,0,4852.40705731197,4852.90706107664,4853.7655934,NaN,NaN,0,NaN,0.566485399999692
SX101,prp,0,2,19,letter_03,false_font_01,irrelevant,object,center,object_12,0.5,0.8,0.116,0.116,onset,1000,202,4853.77369895314,NaN,0,cr,2,4853.8898639,1000,1,4854.3544247,1000,0,4854.27369585314,4855.77365737066,4856.5655423,NaN,NaN,0,NaN,0.464560800000072
SX101,prp,0,2,20,letter_03,false_font_01,non-target,letter,right,letter_10,1,0.766666666666667,0.116,0.116,onset,1000,60,4856.57364410015,NaN,0,cr,2,4856.6899031,1000,1,4857.1956656,1000,0,4857.57361954716,4858.57360194716,4859.3321554,NaN,NaN,0,NaN,0.505762499999946
SX101,prp,0,2,21,letter_03,false_font_01,irrelevant,object,center,object_07,1.5,1.33333333333333,0.116,1.616,offset,1100,197,4859.34024045314,NaN,0,cr,1,4860.9564944,1100,1,4861.4159654,1100,0,4860.84020494132,4861.34019797664,4862.6652538,NaN,NaN,0,NaN,0.459470999999212
SX101,prp,0,2,22,letter_03,false_font_01,irrelevant,object,right,object_08,1.5,0.783333333333333,0,1.5,offset,1000,238,4862.67350717066,NaN,0,cr,2,4864.1746371,1000,1,4865.0816564,1000,0,4864.17346497664,4864.67345868248,4865.4485153,NaN,NaN,0,NaN,0.907019299999774
SX101,prp,0,2,23,letter_03,false_font_01,non-target,false_font,left,false_font_08,0.5,0.75,0.466,0.466,onset,1000,158,4865.45676786482,NaN,0,cr,2,4865.9229953,1000,1,4866.5666407,1000,0,4865.95676435898,4867.45671025314,4868.1986403,NaN,NaN,0,NaN,0.643645399999514
SX101,prp,0,2,24,letter_03,false_font_01,irrelevant,face,center,face_13,0.5,1.66666666666667,0.116,0.116,onset,1000,83,4868.20670017664,NaN,0,cr,2,4868.3227977,1000,1,4868.753617,1000,0,4868.70669606482,4870.20665856482,4871.865088,NaN,NaN,0,NaN,0.430819300000621
SX101,prp,0,2,25,letter_03,false_font_01,non-target,false_font,center,false_font_18,0.5,1.51666666666667,0,0,onset,1100,148,4871.87328585898,NaN,0,cr,1,4871.8744359,1000,0,4872.6417506,1000,1100,4872.37328392949,4873.87324418832,4875.3816362,NaN,NaN,0,NaN,0.767314699999588
SX101,prp,0,2,26,letter_03,false_font_01,target,letter,right,letter_03,0.5,1.11666666666667,0,0,onset,1000,53,4875.38992881183,4876.2859997,1,hit,2,4875.3908666,1000,1,4876.4919495,1,1000,4875.88985822365,4877.38983432949,4878.4982776,NaN,NaN,0,0.896070888173199,1.10108290000062
SX101,prp,0,2,27,letter_03,false_font_01,non-target,false_font,center,false_font_16,1.5,0.733333333333333,0.232,1.732,offset,1100,146,4878.50646596482,NaN,0,cr,1,4880.2386762,1100,1,4880.6349361,1100,0,4880.00642545898,4880.50641290599,4881.2314985,NaN,NaN,0,NaN,0.396259900000587
SX101,prp,0,2,28,letter_03,false_font_01,irrelevant,object,right,object_07,0.5,1.28333333333333,0.232,0.232,onset,1100,237,4881.23972701781,NaN,0,cr,1,4881.4719348,1100,1,4881.9476777,1100,0,4881.73971844132,4883.23968420599,4884.5147878,NaN,NaN,0,NaN,0.475742900000114
SX101,prp,0,2,29,letter_03,false_font_01,non-target,false_font,right,false_font_15,1,0.85,0,1,offset,1000,185,4884.52299187664,NaN,0,cr,2,4885.5240269,1000,1,4885.9707117,1000,0,4885.52296444132,4886.52293851197,4887.3646791,NaN,NaN,0,NaN,0.446684800000185
SX101,prp,0,2,30,letter_03,false_font_01,irrelevant,object,left,object_20,0.5,1.95,0.116,0.616,offset,1000,230,4887.37291450614,NaN,0,cr,2,4887.9891115,1000,1,4888.3139668,1000,0,4887.87292062365,4889.37288570599,4891.3146694,NaN,NaN,0,NaN,0.324855300000308
SX101,prp,0,2,31,letter_03,false_font_01,non-target,letter,left,letter_16,1.5,1.51666666666667,0.466,0.466,onset,1000,46,4891.32282990015,NaN,0,cr,2,4891.7889076,1000,1,4892.4030503,1000,0,4892.82280858248,4893.32278814715,4894.831331,NaN,NaN,0,NaN,0.61414270000023
SX101,prp,0,2,32,letter_03,false_font_01,non-target,false_font,center,false_font_05,0.5,1.88333333333333,0.232,0.232,onset,1100,135,4894.83941834132,NaN,0,cr,1,4895.0715974,1100,1,4895.8286435,1100,0,4895.33940971197,4896.83937029431,4898.7145604,NaN,NaN,0,NaN,0.75704609999957
SX101,prp,0,2,33,letter_03,false_font_01,irrelevant,object,left,object_13,0.5,1.25,0.232,0.232,onset,1000,223,4898.72266712949,NaN,0,cr,2,4898.9548342,1000,1,4899.6158135,1000,0,4899.22271602949,4900.72262909416,4901.9645448,NaN,NaN,0,NaN,0.660979299999781
SX101,prp,0,2,34,letter_03,false_font_01,non-target,letter,left,letter_18,0.5,1.05,0,0,onset,1000,48,4901.97258810015,NaN,0,cr,2,4901.9735624,1000,1,4902.497719,1000,0,4902.47257444716,4903.97253954716,4905.0142943,NaN,NaN,0,NaN,0.524156599999515
SX101,prp,0,2,35,letter_03,false_font_01,irrelevant,face,left,face_18,1.5,1.06666666666667,0.466,0.466,onset,1100,108,4905.02253642964,NaN,0,cr,1,4905.4885787,1100,1,4905.9228974,1100,0,4906.52247754132,4907.02245500045,4908.0810138,NaN,NaN,0,NaN,0.434318699999494
SX101,prp,0,2,36,letter_03,false_font_01,target,false_font,right,false_font_01,1.5,0.816666666666667,0.466,1.966,offset,1000,171,4908.08909620628,4908.7909615,1,hit,2,4910.0553425,1000,1,4910.6349916,1,1000,4909.58907637664,4910.08906204132,4910.8974443,NaN,NaN,0,0.701865293715855,0.579649100000097
SX101,prp,0,3,1,face_16,object_12,target,face,right,face_16,0.5,0.833333333333333,0.466,0.466,onset,1100,126,4931.62191575913,4932.2077381,1,hit,1,4932.0882851,1100,1,4932.9710352,1,1100,4932.12187651197,4933.62185244716,4934.4469378,NaN,NaN,4918.67220122949,0.585822340871346,0.882750100000521
SX101,prp,0,3,2,face_16,object_12,irrelevant,letter,center,letter_20,0.5,0.8,0.232,0.732,offset,1000,30,4934.45518038248,NaN,0,cr,2,4935.1873433,1000,1,4935.6489227,1000,0,4934.95515905898,4936.45511903548,4937.2469228,NaN,NaN,0,NaN,0.461579400000119
SX101,prp,0,3,3,face_16,object_12,non-target,face,left,face_01,1.5,1.75,0.116,0.116,onset,1100,91,4937.25509554132,NaN,0,cr,1,4937.3711891,1100,1,4938.110925,1100,0,4938.75508129416,4939.25506464716,4940.9968478,NaN,NaN,0,NaN,0.739735899999687
SX101,prp,0,3,4,face_16,object_12,non-target,face,left,face_17,1,1.56666666666667,0,0,onset,1100,107,4941.00502158832,4941.4460822,1,fa,1,4941.0058749,1100,1,4942.7321327,1,1100,4942.00499668832,4943.00497933548,4944.5633632,NaN,NaN,0,0.44106061167804,1.72625779999998
SX101,prp,0,3,5,face_16,object_12,irrelevant,false_font,center,false_font_14,1.5,0.966666666666667,0.116,1.616,offset,1000,144,4944.57160888832,NaN,0,cr,2,4946.1877217,1000,1,4946.7031607,1000,0,4946.07157689416,4946.57154467664,4947.5301274,NaN,NaN,0,NaN,0.515438999999787
SX101,prp,0,3,6,face_16,object_12,irrelevant,false_font,right,false_font_14,1,0.9,0.116,1.116,offset,1000,184,4947.53819900015,NaN,0,cr,2,4948.6542351,1000,1,4949.2250436,1000,0,4948.53817582949,4949.53815454716,4950.4300185,NaN,NaN,0,NaN,0.570808500000567
SX101,prp,0,3,7,face_16,object_12,irrelevant,letter,left,letter_02,0.5,1.43333333333333,0.116,0.116,onset,1100,32,4950.43813508248,NaN,0,cr,1,4950.554338,1100,1,4951.1842104,1100,0,4950.93812240015,4952.43807647081,4953.8632029,NaN,NaN,0,NaN,0.62987239999984
SX101,prp,0,3,8,face_16,object_12,non-target,face,left,face_18,1.5,1.06666666666667,0,1.5,offset,1000,108,4953.87138457665,NaN,0,cr,2,4955.3724459,1000,1,4955.8309216,1000,0,4955.37135620599,4955.87133101197,4956.9298971,NaN,NaN,0,NaN,0.458475700000236
SX101,prp,0,3,9,face_16,object_12,target,object,right,object_12,0.5,0.933333333333333,0.116,0.116,onset,1100,242,4956.93798055314,4957.601717,1,hit,1,4957.0541087,1100,1,4958.232952,1,1100,4957.43796188248,4958.93791861197,4959.8629921,NaN,NaN,0,0.663736446857911,1.17884330000015
SX101,prp,0,3,10,face_16,object_12,irrelevant,letter,left,letter_14,1.5,1.86666666666667,0.232,1.732,offset,1100,44,4959.87123918832,NaN,0,cr,1,4961.6032864,1100,1,4962.1167268,1100,0,4961.37120703548,4961.87121894132,4963.7296782,NaN,NaN,0,NaN,0.513440400000036
SX101,prp,0,3,11,face_16,object_12,non-target,object,center,object_05,1,1,0.116,0.116,onset,1100,195,4963.73781969431,NaN,0,cr,1,4963.8539841,1100,1,4964.4770259,1100,0,4964.73780114132,4965.73777053548,4966.729578,NaN,NaN,0,NaN,0.623041799999555
SX101,prp,0,3,12,face_16,object_12,irrelevant,false_font,right,false_font_15,0.5,0.933333333333333,0,0.5,offset,1100,185,4966.73776528832,NaN,0,cr,1,4967.2390342,1000,0,4967.6277405,1000,1100,4967.23773587664,4968.73770654132,4969.6627816,NaN,NaN,0,NaN,0.388706300000194
SX101,prp,0,3,13,face_16,object_12,non-target,face,right,face_02,1.5,1.21666666666667,0.116,0.116,onset,1100,112,4969.67101288248,NaN,0,cr,1,4969.7871235,1100,1,4970.3499939,1100,0,4971.17096917664,4971.67096820599,4972.879363,NaN,NaN,0,NaN,0.562870400000065
SX101,prp,0,3,14,face_16,object_12,non-target,face,left,face_19,1,0.816666666666667,0.232,0.232,onset,1100,109,4972.88761188248,NaN,0,cr,1,4973.1198587,1100,1,4973.5630441,1100,0,4973.88757371781,4974.88755980599,4975.6960168,NaN,NaN,0,NaN,0.443185400000402
SX101,prp,0,3,15,face_16,object_12,irrelevant,letter,center,letter_03,1,0.783333333333333,0.116,0.116,onset,1100,13,4975.70420597664,NaN,0,cr,1,4975.8203557,1100,1,4976.1206279,1100,0,4976.70418798248,4977.70415390599,4978.4793353,NaN,NaN,0,NaN,0.300272200000109
SX101,prp,0,3,16,face_16,object_12,irrelevant,false_font,left,false_font_10,1,1.5,0.232,1.232,offset,1100,160,4978.48747714132,NaN,0,cr,1,4979.7196279,1100,1,4980.0668929,1100,0,4979.48746349416,4980.48743062949,4981.9791771,NaN,NaN,0,NaN,0.347265000000334
SX101,prp,0,3,17,face_16,object_12,irrelevant,letter,center,letter_20,0.5,1.08333333333333,0.232,0.732,offset,1100,30,4981.98739211781,NaN,0,cr,1,4982.7194754,1100,1,4982.9353209,1100,0,4982.48738235898,4983.98734644715,4985.0626338,NaN,NaN,0,NaN,0.215845499999887
SX101,prp,0,3,18,face_16,object_12,irrelevant,false_font,center,false_font_12,1,1.15,0.116,0.116,onset,1100,142,4985.07066377066,NaN,0,cr,1,4985.1868905,1100,1,4985.6358721,1100,0,4986.07062660015,4987.07061130599,4988.2125058,NaN,NaN,0,NaN,0.44898159999957
SX101,prp,0,3,19,face_16,object_12,irrelevant,false_font,left,false_font_09,1.5,1.05,0.466,1.966,offset,1100,159,4988.22057445898,NaN,0,cr,1,4990.1866429,1100,1,4990.6056406,1100,0,4989.72054452949,4990.22053274715,4991.2623615,NaN,NaN,0,NaN,0.418997699999636
SX101,prp,0,3,20,face_16,object_12,non-target,face,left,face_08,1.5,1.45,0.116,1.616,offset,1100,98,4991.27050733548,NaN,0,cr,1,4992.8866198,1100,1,4993.1155619,1100,0,4992.77047224716,4993.27045481781,4994.7123667,NaN,NaN,0,NaN,0.228942100000495
SX101,prp,0,3,21,face_16,object_12,non-target,face,center,face_10,0.5,1.36666666666667,0.116,0.116,onset,1100,80,4994.72042937664,NaN,0,cr,1,4994.836673,1100,1,4995.5039237,1100,0,4995.22041784132,4996.72038824715,4998.0788956,NaN,NaN,0,NaN,0.667250700000295
SX101,prp,0,3,22,face_16,object_12,target,object,right,object_12,1.5,0.716666666666667,0.116,1.616,offset,1000,242,4998.08701411183,4998.7507223,1,hit,2,4999.7032696,1000,1,5000.2706058,1,1000,4999.58697747665,5000.08697803533,5000.7953611,NaN,NaN,0,0.663708188174496,0.567336200000682
SX101,prp,0,3,23,face_16,object_12,non-target,face,left,face_04,1,1.18333333333333,0,1,offset,1100,94,5000.80361334132,NaN,0,cr,1,5001.8047527,1000,0,5002.3990951,1000,0,5001.80359669431,5002.80356008263,5003.9786447,NaN,NaN,0,NaN,0.594342399999732
SX101,prp,0,3,24,face_16,object_12,non-target,face,center,face_15,1.5,0.783333333333333,0.466,0.466,onset,1000,85,5003.98687633533,NaN,0,cr,2,5004.4531126,1000,1,5005.0569,1000,0,5005.48684702949,5005.98683079416,5006.7619475,NaN,NaN,0,NaN,0.603787399999419
SX101,prp,0,3,25,face_16,object_12,irrelevant,letter,center,letter_03,1.5,1.51666666666667,0.116,0.116,onset,1100,13,5006.77015322949,NaN,0,cr,1,5006.8863218,1100,1,5007.4920007,1100,0,5008.27010669431,5008.77010038248,5010.2785324,NaN,NaN,0,NaN,0.605678900000385
SX101,prp,0,3,26,face_16,object_12,non-target,object,left,object_20,0.5,1.15,0,0,onset,1000,230,5010.28672768832,NaN,0,cr,2,5010.2876541,1000,1,5010.9588827,1000,0,5010.78671187664,5012.28669058832,5013.428424,NaN,NaN,0,NaN,0.671228600000177
SX101,prp,0,3,27,face_16,object_12,non-target,face,left,face_11,1,0.75,0.116,0.116,onset,1000,101,5013.43665632949,NaN,0,cr,2,5013.5528483,1000,1,5014.0479464,1000,0,5014.43663075898,5015.43660765299,5016.1784658,NaN,NaN,0,NaN,0.495098100000178
SX101,prp,0,3,28,face_16,object_12,irrelevant,false_font,center,false_font_13,0.5,1.76666666666667,0.232,0.732,offset,1100,143,5016.18659303548,NaN,0,cr,1,5016.9186728,1100,1,5017.8360117,1100,0,5016.68658034132,5018.18653806497,5019.9450333,NaN,NaN,0,NaN,0.917338899999777
SX101,prp,0,3,29,face_16,object_12,target,face,left,face_16,0.5,0.983333333333333,0,0.5,offset,1100,106,5019.9531345476,5020.772646,1,hit,1,5020.4542735,1100,1,5021.2878946,1,1100,5020.45315885898,5021.95312068832,5022.9281456,NaN,NaN,0,0.819511452400548,0.833621099999618
SX101,prp,0,3,30,face_16,object_12,non-target,object,center,object_14,0.5,1.08333333333333,0.116,0.616,offset,1100,204,5022.93642297081,NaN,0,cr,1,5023.5524876,1100,1,5024.0458433,1100,0,5023.43642879416,5024.93638778832,5026.0115591,NaN,NaN,0,NaN,0.493355700000393
SX101,prp,0,3,31,face_16,object_12,non-target,object,center,object_03,1.5,1.41666666666667,0.232,0.232,onset,1000,193,5026.01968197665,NaN,0,cr,2,5026.2518323,1000,1,5026.7456241,1000,0,5027.51966088248,5028.01964669431,5029.4281974,NaN,NaN,0,NaN,0.493791799999599
SX101,prp,0,3,32,face_16,object_12,non-target,face,center,face_18,0.5,1.38333333333333,0,0.5,offset,1000,88,5029.43628368832,NaN,0,cr,2,5029.9374577,1000,1,5030.4848696,1000,0,5029.93625825314,5031.43623690599,5032.8113934,NaN,NaN,0,NaN,0.547411900000043
SX101,prp,0,3,33,face_16,object_12,target,object,right,object_12,0.5,1.31666666666667,0.116,0.616,offset,1000,242,5032.81958797066,5033.5756175,1,hit,2,5033.435692,1100,0,5034.3380264,1,1100,5033.31951768832,5034.81948458832,5036.12798,NaN,NaN,0,0.756029529341504,0.902334399999745
SX101,prp,0,3,34,face_16,object_12,irrelevant,letter,center,letter_12,1.5,1.08333333333333,0.466,0.466,onset,1100,22,5036.13612213548,NaN,0,cr,1,5036.6023582,1100,1,5037.1039607,1100,0,5037.63608748832,5038.13607884715,5039.2112416,NaN,NaN,0,NaN,0.501602500000445
SX101,prp,0,3,35,face_16,object_12,target,face,center,face_16,1.5,1.08333333333333,0,1.5,offset,1100,86,5039.21937917664,5039.8079796,1,hit,1,5040.7204887,1100,1,5041.5600481,1,1100,5040.71934557664,5041.21933561781,5042.2943941,NaN,NaN,0,0.588600423355274,0.839559400000326
SX101,prp,0,3,36,face_16,object_12,non-target,face,center,face_05,1.5,1.91666666666667,0.232,1.732,offset,1000,75,5042.30263761197,NaN,0,cr,2,5044.0348464,1000,1,5044.645125,1000,0,5043.80260411781,5044.30260019431,5046.21113,NaN,NaN,0,NaN,0.610278600000129
SX101,prp,0,3,37,face_16,object_12,irrelevant,letter,right,letter_09,1,1.28333333333333,0.116,1.116,offset,1000,59,5046.21922117066,NaN,0,cr,2,5047.3352878,1000,1,5047.7789689,1000,0,5047.21920074715,5048.21917154716,5049.4943734,NaN,NaN,0,NaN,0.443681100000504
SX101,prp,0,3,38,face_16,object_12,irrelevant,letter,left,letter_06,1.5,0.966666666666667,0.466,0.466,onset,1000,36,5049.50247444132,NaN,0,cr,2,5049.968681,1000,1,5050.532867,1000,0,5051.00244194715,5051.50242957066,5052.4609876,NaN,NaN,0,NaN,0.564185999999609
SX101,prp,0,4,1,face_03,object_16,target,object,center,object_16,0.5,1.4,0,0,onset,1100,206,5069.26869252365,5069.8776709,1,hit,1,5069.2696793,1100,1,5070.4379347,1,1100,5069.76867745898,5071.26863755314,5072.6603739,NaN,NaN,5061.70219497664,0.608978376349114,1.16825540000082
SX101,prp,0,4,2,face_03,object_16,non-target,object,right,object_17,1.5,0.9,0.116,1.616,offset,1000,247,5072.66861280599,NaN,0,cr,2,5074.2847271,1000,1,5074.798728,1000,0,5074.16857698832,5074.66857215898,5075.5603248,NaN,NaN,0,NaN,0.514000899999701
SX101,prp,0,4,3,face_03,object_16,non-target,face,center,face_06,0.5,0.883333333333333,0,0,onset,1100,76,5075.56854862949,NaN,0,cr,1,5075.5694821,1100,1,5076.8430523,1100,0,5076.06852421781,5077.56849197066,5078.4436104,NaN,NaN,0,NaN,1.27357019999999
SX101,prp,0,4,4,face_03,object_16,irrelevant,letter,center,letter_07,1,1.06666666666667,0.466,0.466,onset,1100,17,5078.45181447066,NaN,0,cr,1,5078.9180336,1000,0,5080.0159494,1000,0,5079.45178618248,5080.45175408248,5081.5103738,NaN,NaN,0,NaN,1.09791580000001
SX101,prp,0,4,5,face_03,object_16,non-target,object,right,object_12,0.5,1.16666666666667,0.466,0.966,offset,1100,242,5081.51840670599,5082.0637588,1,fa,1,5082.4845654,0,NaN,NaN,1,0,5082.01839584716,5083.51835254132,5084.6768127,NaN,NaN,0,0.545352094012742,NaN
SX101,prp,0,4,6,face_03,object_16,non-target,face,left,face_14,0.5,0.816666666666667,0.232,0.232,onset,1100,104,5084.68499159431,NaN,0,cr,1,5084.9170695,1100,1,5085.4776871,1100,0,5085.18498568832,5086.68494785898,5087.4933681,NaN,NaN,0,NaN,0.560617600000114
SX101,prp,0,4,7,face_03,object_16,non-target,object,center,object_20,1,0.833333333333333,0.232,1.232,offset,1100,210,5087.50159738248,NaN,0,cr,1,5088.7337979,1100,1,5089.1230118,1100,0,5088.50157307664,5089.50156234716,5090.3267316,NaN,NaN,0,NaN,0.389213899999959
SX101,prp,0,4,8,face_03,object_16,non-target,object,right,object_02,1.5,0.816666666666667,0.232,0.232,onset,1000,232,5090.33486320015,NaN,0,cr,2,5090.5669515,1000,1,5091.1809773,1000,0,5091.83482901197,5092.33484523548,5093.1434103,NaN,NaN,0,NaN,0.614025800000491
SX101,prp,0,4,9,face_03,object_16,irrelevant,false_font,right,false_font_19,1.5,0.733333333333333,0.116,1.616,offset,1100,189,5093.15145164146,NaN,0,cr,1,5094.7677129,1100,1,5095.3005908,1100,0,5094.65147081197,5095.15141420599,5095.8765117,NaN,NaN,0,NaN,0.532877899999221
SX101,prp,0,4,10,face_03,object_16,irrelevant,letter,center,letter_07,1.5,0.966666666666667,0,0,onset,1000,17,5095.88473960599,NaN,0,cr,2,5095.8856344,1000,1,5096.3909385,1000,0,5097.38469767664,5097.88469009416,5098.8431882,NaN,NaN,0,NaN,0.505304100000103
SX101,prp,0,4,11,face_03,object_16,irrelevant,false_font,right,false_font_11,1.5,1.66666666666667,0.116,1.616,offset,1000,181,5098.85133402949,NaN,0,cr,2,5100.4674505,1000,1,5100.9747124,1000,0,5100.35128980015,5100.85127451781,5102.5098012,NaN,NaN,0,NaN,0.507261899999321
SX101,prp,0,4,12,face_03,object_16,non-target,object,left,object_17,1.5,0.816666666666667,0.116,0.116,onset,1100,227,5102.51790575314,NaN,0,cr,1,5102.6341745,1100,1,5103.1876812,1100,0,5104.01786919431,5104.51785825898,5105.3264335,NaN,NaN,0,NaN,0.553506700000071
SX101,prp,0,4,13,face_03,object_16,non-target,face,center,face_05,0.5,1.65,0,0.5,offset,1000,75,5105.33456347664,NaN,0,cr,2,5105.835808,1000,1,5106.2768623,1000,0,5105.83449468847,5107.33446181781,5108.9763818,NaN,NaN,0,NaN,0.44105430000036
SX101,prp,0,4,14,face_03,object_16,non-target,object,left,object_06,1.5,1.86666666666667,0.232,1.732,offset,1100,216,5108.98442063548,NaN,0,cr,1,5110.716557,1100,1,5111.2336768,1100,0,5110.48439157665,5110.98437720599,5112.8430325,NaN,NaN,0,NaN,0.517119799999818
SX101,prp,0,4,15,face_03,object_16,non-target,object,center,object_15,1.5,1.25,0.466,0.466,onset,1000,205,5112.85100744132,NaN,0,cr,2,5113.3170646,1000,1,5113.7266086,1000,0,5114.35097608832,5114.85101957066,5116.0927397,NaN,NaN,0,NaN,0.409544000000096
SX101,prp,0,4,16,face_03,object_16,target,face,right,face_03,0.5,1.5,0,0.5,offset,1000,113,5116.10093887066,5117.0879749,1,hit,2,5116.6018991,1100,0,5118.7519383,1,1100,5116.60091672949,5118.10087861781,5119.5926202,NaN,NaN,0,0.987036029341652,2.15003919999981
SX101,prp,0,4,17,face_03,object_16,irrelevant,false_font,center,false_font_14,1.5,1,0,0,onset,1000,144,5119.60085138832,NaN,0,cr,2,5119.6017245,1100,0,5120.326566,1100,0,5121.10080555898,5121.60079856482,5122.5926803,NaN,NaN,0,NaN,0.724841499999457
SX101,prp,0,4,18,face_03,object_16,irrelevant,false_font,center,false_font_19,0.5,1.6,0.232,0.232,onset,1000,149,5122.60077399416,NaN,0,cr,2,5122.8332103,1100,0,5125.3670491,1100,0,5123.10077127066,5124.60073422365,5126.1925617,NaN,NaN,0,NaN,2.53383880000001
SX101,prp,0,4,19,face_03,object_16,irrelevant,letter,left,letter_15,1.5,1.25,0.116,0.116,onset,1100,45,5126.20070141183,NaN,0,cr,1,5126.3170152,1100,1,5126.8891177,1100,0,5127.70065941183,5128.20064205898,5129.4423866,NaN,NaN,0,NaN,0.572102499999346
SX101,prp,0,4,20,face_03,object_16,non-target,object,center,object_06,0.5,1.05,0.116,0.116,onset,1000,196,5129.45062344132,NaN,0,cr,2,5129.5667088,1000,1,5129.9408996,1000,0,5129.95060690015,5131.45056867066,5132.492462,NaN,NaN,0,NaN,0.374190800000179
SX101,prp,0,4,21,face_03,object_16,irrelevant,false_font,right,false_font_01,1,1.55,0.232,1.232,offset,1000,171,5132.50055481183,NaN,0,cr,2,5133.7327514,1100,0,5134.1326229,1100,0,5133.50052045314,5134.50048907664,5136.0422744,NaN,NaN,0,NaN,0.39987149999979
SX101,prp,0,4,22,face_03,object_16,irrelevant,false_font,center,false_font_11,0.5,1.01666666666667,0.232,0.232,onset,1100,141,5136.05045734132,NaN,0,cr,1,5136.2826913,1100,1,5136.7949199,1100,0,5136.55045891183,5138.05040773548,5139.0589475,NaN,NaN,0,NaN,0.512228600000526
SX101,prp,0,4,23,face_03,object_16,non-target,face,left,face_16,1,1.75,0.466,1.466,offset,1100,106,5139.06711674716,NaN,0,cr,1,5140.5332644,1100,1,5140.9276057,1100,0,5140.06703852949,5141.06701497664,5142.8088781,NaN,NaN,0,NaN,0.394341299999724
SX101,prp,0,4,24,face_03,object_16,irrelevant,letter,center,letter_03,0.5,1.66666666666667,0.466,0.466,onset,1000,13,5142.81696881781,NaN,0,cr,2,5143.2830375,1000,1,5144.112872,1000,0,5143.31696278832,5144.81692424715,5146.47533,NaN,NaN,0,NaN,0.829834499999379
SX101,prp,0,4,25,face_03,object_16,irrelevant,false_font,left,false_font_12,1.5,1.16666666666667,0,0,onset,1000,162,5146.48354431781,NaN,0,cr,2,5146.4845772,1000,1,5147.1151694,1000,0,5147.98351854715,5148.48350595898,5149.6420113,NaN,NaN,0,NaN,0.630592200000137
SX101,prp,0,4,26,face_03,object_16,non-target,face,center,face_17,1,1.58333333333333,0.232,0.232,onset,1000,87,5149.65014272949,NaN,0,cr,2,5149.882272,1000,1,5150.8258667,1000,0,5150.65012688248,5151.65009260015,5153.225333,NaN,NaN,0,NaN,0.943594700000176
SX101,prp,0,4,27,face_03,object_16,non-target,object,right,object_19,0.5,1,0,0,onset,1000,249,5153.23339066482,NaN,0,cr,2,5153.23431,1000,1,5153.8448376,1000,0,5153.73339074132,5155.23335052365,5156.2251716,NaN,NaN,0,NaN,0.610527599999841
SX101,prp,0,4,28,face_03,object_16,non-target,face,right,face_08,1,1.13333333333333,0.116,1.116,offset,1000,118,5156.23332141781,NaN,0,cr,2,5157.3494932,1000,1,5157.8285849,1000,0,5157.23330807664,5158.23327151781,5159.3584029,NaN,NaN,0,NaN,0.479091700000026
SX101,prp,0,4,29,face_03,object_16,irrelevant,false_font,center,false_font_13,1.5,1.76666666666667,0.232,0.232,onset,1000,143,5159.36657731197,NaN,0,cr,2,5159.5988238,1100,0,5160.0945924,1100,0,5160.86654437081,5161.36654160015,5163.1250736,NaN,NaN,0,NaN,0.495768599999792
SX101,prp,0,4,30,face_03,object_16,irrelevant,letter,left,letter_14,0.5,1.31666666666667,0,0.5,offset,1100,44,5163.13317284132,NaN,0,cr,1,5163.6343109,1100,1,5164.0019454,1100,0,5163.63314649431,5165.13311566482,5166.4416007,NaN,NaN,0,NaN,0.367634500000349
SX101,prp,0,4,31,face_03,object_16,target,face,left,face_03,1.5,1.91666666666667,0.466,0.466,onset,1100,93,5166.44975001781,NaN,0,miss,1,5166.9158432,1100,1,5167.5458283,1100,0,5167.94972614132,5168.44971203548,5170.3582337,NaN,NaN,0,NaN,0.629985099999431
SX101,prp,0,4,32,face_03,object_16,irrelevant,false_font,center,false_font_14,0.5,1.23333333333333,0.466,0.966,offset,1000,144,5170.36633378832,NaN,0,cr,2,5171.332482,1000,1,5171.8450035,1000,0,5170.86632011781,5172.36633585898,5173.5915779,NaN,NaN,0,NaN,0.512521499999821
SX101,prp,0,4,33,face_03,object_16,non-target,face,center,face_14,0.5,1.83333333333333,0.116,0.616,offset,1100,84,5173.59958623548,NaN,0,cr,1,5174.2157439,1100,1,5174.8215537,1100,0,5174.09958105898,5175.59953866482,5177.4246953,NaN,NaN,0,NaN,0.605809799999406
SX101,prp,0,4,34,face_03,object_16,irrelevant,letter,right,letter_12,1.5,0.816666666666667,0.232,1.732,offset,1000,62,5177.43283282949,NaN,0,cr,2,5179.164998,1100,0,5180.0629046,1100,0,5178.93281110599,5179.43279025898,5180.2412637,NaN,NaN,0,NaN,0.897906600000169
SX101,prp,0,4,35,face_03,object_16,irrelevant,letter,center,letter_09,0.5,0.833333333333333,0.116,0.116,onset,1000,19,5180.24943686482,NaN,0,cr,2,5180.3654874,1100,0,5181.0225559,1100,0,5180.74943251183,5182.24939489431,5183.0746138,NaN,NaN,0,NaN,0.657068499999696
SX101,prp,0,5,1,face_04,object_20,non-target,object,right,object_07,1.5,1.08333333333333,0.232,0.232,onset,1100,237,5596.55641274146,NaN,0,cr,1,5596.7884845,1100,1,5597.3684641,1100,0,5598.05634501227,5598.55635248847,5599.6316114,NaN,NaN,5584.94001231183,NaN,0.579979600000115
SX101,prp,0,5,2,face_04,object_20,irrelevant,letter,right,letter_20,1,0.916666666666667,0,1,offset,1000,70,5599.63967858832,NaN,0,cr,2,5600.6407113,1000,1,5601.274397,1000,0,5600.63964094132,5601.63962360599,5602.5480311,NaN,NaN,0,NaN,0.633685700000569
SX101,prp,0,5,3,face_04,object_20,target,face,left,face_04,1,1.16666666666667,0.116,0.116,onset,1100,94,5602.55627363548,5603.2517889,1,hit,1,5602.672324,1100,1,5603.7699657,1,1100,5603.5562583,5604.55621518847,5605.7146258,NaN,NaN,0,0.695515264522328,1.09764170000017
SX101,prp,0,5,4,face_04,object_20,irrelevant,letter,left,letter_20,1,0.85,0.116,1.116,offset,1100,50,5605.72286492949,NaN,0,cr,1,5606.8389411,1100,1,5607.2825387,1100,0,5606.72284728832,5607.72281280599,5608.5646377,NaN,NaN,0,NaN,0.44359760000043
SX101,prp,0,5,5,face_04,object_20,irrelevant,letter,left,letter_19,1,0.933333333333333,0,0,onset,1000,49,5608.57279874132,NaN,0,cr,2,5608.5737841,1000,1,5609.3228623,1000,0,5609.57277004132,5610.57275244715,5611.498019,NaN,NaN,0,NaN,0.74907820000044
SX101,prp,0,5,6,face_04,object_20,irrelevant,letter,center,letter_06,1.5,1.2,0.232,0.232,onset,1100,16,5611.50607014132,NaN,0,cr,1,5611.7384402,1100,1,5612.1736747,1100,0,5613.00603157066,5613.50602482949,5614.6977765,NaN,NaN,0,NaN,0.435234500000661
SX101,prp,0,5,7,face_04,object_20,non-target,object,left,object_09,1.5,0.933333333333333,0.232,1.732,offset,1000,219,5614.70599079416,NaN,0,cr,2,5616.4380989,1000,1,5616.8080169,1000,0,5616.20594693548,5616.70594425898,5617.6311078,NaN,NaN,0,NaN,0.369918000000325
SX101,prp,0,5,8,face_04,object_20,irrelevant,false_font,center,false_font_06,1,1.46666666666667,0.466,0.466,onset,1000,136,5617.63925202949,NaN,0,cr,2,5618.1052972,1000,1,5618.4957276,1000,0,5618.63923358248,5619.63920841183,5621.0977464,NaN,NaN,0,NaN,0.390430399999786
SX101,prp,0,5,9,face_04,object_20,non-target,object,left,object_07,0.5,1.45,0.466,0.466,onset,1100,217,5621.10583908248,NaN,0,cr,1,5621.5720966,1100,1,5621.944435,1100,0,5621.60582680599,5623.10579157665,5624.5476922,NaN,NaN,0,NaN,0.372338400000444
SX101,prp,0,5,10,face_04,object_20,non-target,object,center,object_01,1.5,1.78333333333333,0.116,1.616,offset,1100,191,5624.55575711183,NaN,0,cr,1,5626.1718262,1100,1,5626.5749081,1100,0,5626.05571777664,5626.55570727081,5628.3308586,NaN,NaN,0,NaN,0.403081899999961
SX101,prp,0,5,11,face_04,object_20,non-target,face,right,face_12,1,0.933333333333333,0.232,1.232,offset,1100,122,5628.33900124716,NaN,0,cr,1,5629.5711912,1100,1,5629.9750312,1100,0,5629.33897582964,5630.33895771197,5631.2641314,NaN,NaN,0,NaN,0.403839999999946
SX101,prp,0,5,12,face_04,object_20,non-target,object,left,object_19,1,0.983333333333333,0.116,1.116,offset,1100,229,5631.27225685314,NaN,0,cr,1,5632.3883834,1100,1,5632.8090639,1100,0,5632.27223617664,5633.27222016482,5634.2474429,NaN,NaN,0,NaN,0.420680500000344
SX101,prp,0,5,13,face_04,object_20,non-target,object,left,object_19,1.5,0.866666666666667,0.232,0.232,onset,1100,229,5634.25552994716,NaN,0,cr,1,5634.4876858,1100,1,5634.7435574,1100,0,5635.75550302365,5636.25549258832,5637.1140158,NaN,NaN,0,NaN,0.255871600000319
SX101,prp,0,5,14,face_04,object_20,non-target,face,center,face_01,0.5,1.98333333333333,0.466,0.966,offset,1100,71,5637.12213354132,NaN,0,cr,1,5638.0883575,1100,1,5638.4088547,1100,0,5637.62211920015,5639.12213568832,5641.0972952,NaN,NaN,0,NaN,0.320497200000318
SX101,prp,0,5,15,face_04,object_20,non-target,face,center,face_19,1.5,1.41666666666667,0,0,onset,1000,89,5641.10535999431,NaN,0,cr,2,5641.1064343,1100,0,5641.6284426,1100,0,5642.60534374716,5643.10531864132,5644.5137712,NaN,NaN,0,NaN,0.52200830000038
SX101,prp,0,5,16,face_04,object_20,non-target,face,center,face_18,1,1.3,0.116,0.116,onset,1000,88,5644.52194701197,NaN,0,cr,2,5644.6380277,1000,1,5645.5900618,1000,0,5645.52193367664,5646.52191067664,5647.8138454,NaN,NaN,0,NaN,0.952034099999764
SX101,prp,0,5,17,face_04,object_20,non-target,object,right,object_16,1.5,1.03333333333333,0,0,onset,1100,246,5647.82188280015,NaN,0,cr,1,5647.8228701,1100,1,5649.2147184,1100,0,5649.32185627066,5649.82182911781,5650.8470864,NaN,NaN,0,NaN,1.39184829999977
SX101,prp,0,5,18,face_04,object_20,target,object,right,object_20,1,1.4,0.232,1.232,offset,1000,250,5650.85515144715,5651.4444223,1,hit,2,5652.0872267,1000,1,5652.8814313,1,1000,5651.85511395898,5652.85510268832,5654.246832,NaN,NaN,0,0.589270852845402,0.79420459999983
SX101,prp,0,5,19,face_04,object_20,non-target,face,left,face_01,1,0.733333333333333,0.116,1.116,offset,1100,91,5654.25506198832,NaN,0,cr,1,5655.3711371,1100,1,5655.91586,1100,0,5655.25503987664,5656.25500914132,5656.9803122,NaN,NaN,0,NaN,0.544722900000124
SX101,prp,0,5,20,face_04,object_20,irrelevant,letter,right,letter_10,1.5,1.05,0.116,0.116,onset,1000,60,5656.98833124715,NaN,0,cr,2,5657.104459,1100,0,5658.4019525,1100,0,5658.48829665898,5658.98827715898,5660.0300797,NaN,NaN,0,NaN,1.2974935000002
SX101,prp,0,5,21,face_04,object_20,irrelevant,false_font,right,false_font_07,1,0.816666666666667,0.466,0.466,onset,1000,177,5660.03826295898,NaN,0,cr,2,5660.5044511,0,NaN,NaN,0,0,5661.03823240599,5662.03822158248,5662.8468321,NaN,NaN,0,NaN,NaN
SX101,prp,0,5,22,face_04,object_20,irrelevant,letter,left,letter_04,0.5,0.75,0.232,0.732,offset,1100,34,5662.85485497664,NaN,0,cr,1,5663.5869838,1100,1,5664.135458,1100,0,5663.35485227066,5664.85481481781,5665.5967118,NaN,NaN,0,NaN,0.548474199999873
SX101,prp,0,5,23,face_04,object_20,irrelevant,false_font,left,false_font_14,0.5,0.983333333333333,0.232,0.732,offset,1100,164,5665.60479564132,NaN,0,cr,1,5666.3370728,1100,1,5666.7508273,1100,0,5666.10479525299,5667.60475587066,5668.5798044,NaN,NaN,0,NaN,0.413754500000323
SX101,prp,0,5,24,face_04,object_20,irrelevant,letter,center,letter_19,0.5,1.1,0.466,0.466,onset,1000,29,5668.58807038832,NaN,0,cr,2,5669.0542862,1100,0,5670.8037071,1100,0,5669.08804901183,5670.58802078248,5671.6798454,NaN,NaN,0,NaN,1.74942089999968
SX101,prp,0,5,25,face_04,object_20,non-target,face,left,face_15,1,1.08333333333333,0.232,1.232,offset,1100,105,5671.68798255898,NaN,0,cr,1,5672.9201997,1100,1,5673.5399912,1100,0,5672.68796718832,5673.68793437664,5674.7631573,NaN,NaN,0,NaN,0.619791500000247
SX101,prp,0,5,26,face_04,object_20,non-target,face,center,face_16,1.5,0.716666666666667,0.466,1.966,offset,1000,86,5674.77124524132,NaN,0,cr,2,5676.7374526,1000,1,5677.1864367,1000,0,5676.27120287081,5676.77120032365,5677.4796677,NaN,NaN,0,NaN,0.448984099999507
SX101,prp,0,5,27,face_04,object_20,irrelevant,letter,center,letter_17,0.5,1.46666666666667,0,0,onset,1100,27,5677.48785268832,NaN,0,cr,1,5677.4887675,1100,1,5678.0889022,1100,0,5677.98784071781,5679.48779311197,5680.946258,NaN,NaN,0,NaN,0.600134700000126
SX101,prp,0,5,28,face_04,object_20,irrelevant,letter,left,letter_16,0.5,0.966666666666667,0.466,0.466,onset,1000,46,5680.95442555314,NaN,0,cr,2,5681.4205911,1000,1,5682.5369581,1000,0,5681.45442920599,5682.95439104132,5683.9129852,NaN,NaN,0,NaN,1.11636700000054
SX101,prp,0,5,29,face_04,object_20,irrelevant,false_font,center,false_font_03,1,1.33333333333333,0.232,1.232,offset,1000,133,5683.92103921781,NaN,0,cr,2,5685.1533937,1000,1,5685.6487149,1000,0,5684.92101268832,5685.92100407066,5687.2461834,NaN,NaN,0,NaN,0.495321200000035
SX101,prp,0,5,30,face_04,object_20,irrelevant,letter,right,letter_14,1.5,1.01666666666667,0.466,0.466,onset,1000,64,5687.25428975898,NaN,0,cr,2,5687.7203573,1100,0,5688.4649789,1100,0,5688.75425497066,5689.25424534716,5690.2626744,NaN,NaN,0,NaN,0.744621599999846
SX101,prp,0,5,31,face_04,object_20,irrelevant,false_font,left,false_font_13,1,0.983333333333333,0.232,1.232,offset,1100,163,5690.27089817066,NaN,0,cr,1,5691.5029757,1100,1,5691.9749036,1100,0,5691.27086446482,5692.27083718248,5693.2460032,NaN,NaN,0,NaN,0.471927900000082
SX101,prp,0,5,32,face_04,object_20,non-target,object,right,object_05,0.5,1.61666666666667,0,0.5,offset,1000,235,5693.25413803548,NaN,0,cr,2,5693.755283,1000,1,5694.3114543,1000,0,5693.75412857664,5695.25409173548,5696.8626789,NaN,NaN,0,NaN,0.556171299999733
SX101,prp,0,5,33,face_04,object_20,irrelevant,letter,center,letter_18,0.5,0.783333333333333,0.116,0.116,onset,1100,28,5696.87072878832,NaN,0,cr,1,5696.986922,1100,1,5697.7177976,1100,0,5697.37072042365,5698.87068745898,5699.6457992,NaN,NaN,0,NaN,0.730875600000218
SX101,prp,0,5,34,face_04,object_20,non-target,face,right,face_17,1.5,0.783333333333333,0.116,1.616,offset,1000,127,5699.65398737081,NaN,0,cr,2,5701.2700654,1000,1,5701.7418329,1000,0,5701.15397208832,5701.65394320015,5702.4290639,NaN,NaN,0,NaN,0.471767500000169
SX101,prp,0,6,1,face_09,object_03,irrelevant,letter,center,letter_13,1,1.15,0,0,onset,1000,23,5721.55354215314,NaN,0,cr,2,5721.556825,1100,0,5722.3055078,1100,0,5722.55350410599,5723.55344038248,5724.6954373,NaN,NaN,5712.65370550599,NaN,0.748682800000097
SX101,prp,0,6,2,face_09,object_03,target,face,right,face_09,1,1.1,0,0,onset,1000,119,5724.70341918248,5725.2798521,1,hit,2,5724.7044648,1100,0,5725.8168803,1,1100,5725.70339157665,5726.70336247664,5727.7951003,NaN,NaN,0,0.576432917516286,1.11241549999977
SX101,prp,0,6,3,face_09,object_03,non-target,face,center,face_20,1,1.58333333333333,0.466,0.466,onset,1000,90,5727.8033370473,NaN,0,cr,2,5728.2694394,1100,0,5728.7557071,1100,0,5728.80329129461,5729.80329221781,5731.3785456,NaN,NaN,0,NaN,0.486267700000099
SX101,prp,0,6,4,face_09,object_03,irrelevant,false_font,center,false_font_15,0.5,0.733333333333333,0.116,0.116,onset,1000,145,5731.38659257664,NaN,0,cr,2,5731.5026595,1100,0,5731.9624593,1100,0,5731.88656455314,5733.38653113548,5734.1117737,NaN,NaN,0,NaN,0.459799799999928
SX101,prp,0,6,5,face_09,object_03,non-target,object,right,object_09,0.5,0.766666666666667,0.232,0.732,offset,1000,239,5734.11986478832,NaN,0,cr,2,5734.8521095,1100,0,5735.2597516,1100,0,5734.61981638293,5736.11980288847,5736.8783761,NaN,NaN,0,NaN,0.407642099999975
SX101,prp,0,6,6,face_09,object_03,non-target,face,right,face_02,1,1.6,0,0,onset,1100,112,5736.88646020599,NaN,0,cr,1,5736.887503,1100,1,5737.8367169,1100,0,5737.88643684715,5738.88642527066,5740.4781964,NaN,NaN,0,NaN,0.949213900000359
SX101,prp,0,6,7,face_09,object_03,irrelevant,false_font,left,false_font_13,1.5,0.733333333333333,0.466,1.966,offset,1100,163,5740.48636587664,NaN,0,cr,1,5742.4526184,0,NaN,NaN,0,0,5741.98633783548,5742.48633352949,5743.2115797,NaN,NaN,0,NaN,NaN
SX101,prp,0,6,8,face_09,object_03,target,object,left,object_03,1.5,1.66666666666667,0.466,0.466,onset,1000,213,5743.21965082365,5743.7407064,1,hit,2,5743.6857219,1000,1,5744.4179363,1,1000,5744.71961649416,5745.21959810599,5746.8779914,NaN,NaN,0,0.521055576348772,0.732214399999975
SX101,prp,0,6,9,face_09,object_03,irrelevant,letter,center,letter_09,1.5,1.51666666666667,0.116,0.116,onset,1000,19,5746.88622404132,NaN,0,cr,2,5747.0024556,1000,1,5747.698515,1000,0,5748.38618861781,5748.88617331781,5750.3947346,NaN,NaN,0,NaN,0.696059400000195
SX101,prp,0,6,10,face_09,object_03,non-target,face,right,face_05,1,1.8,0.232,0.232,onset,1100,115,5750.40280428847,NaN,0,cr,1,5750.6348579,0,NaN,NaN,0,0,5751.40278079431,5752.40275292964,5754.1944803,NaN,NaN,0,NaN,NaN
SX101,prp,0,6,11,face_09,object_03,irrelevant,letter,center,letter_03,1.5,0.983333333333333,0.116,1.616,offset,1100,13,5754.20272388248,NaN,0,cr,1,5755.8189713,1100,1,5756.2856715,1100,0,5755.70268420599,5756.20268215299,5757.1778611,NaN,NaN,0,NaN,0.46670019999965
SX101,prp,0,6,12,face_09,object_03,non-target,face,right,face_17,1,0.8,0.466,0.466,onset,1100,127,5757.18599783548,NaN,0,cr,1,5757.6522217,1100,1,5758.0667771,1100,0,5758.18596078832,5759.18593850015,5759.9779013,NaN,NaN,0,NaN,0.414555399999699
SX101,prp,0,6,13,face_09,object_03,irrelevant,letter,right,letter_20,0.5,1.43333333333333,0.116,0.616,offset,1000,70,5759.98590450045,NaN,0,cr,2,5760.6022184,1000,1,5761.0414209,1000,0,5760.48590229431,5761.98587044132,5763.4110473,NaN,NaN,0,NaN,0.439202499999737
SX101,prp,0,6,14,face_09,object_03,irrelevant,letter,right,letter_19,0.5,0.883333333333333,0,0,onset,1000,69,5763.41917914715,NaN,0,cr,2,5763.4200678,1100,0,5764.009676,1100,0,5763.91916268832,5765.41912343548,5766.294278,NaN,NaN,0,NaN,0.58960819999993
SX101,prp,0,6,15,face_09,object_03,irrelevant,false_font,center,false_font_13,1,1.41666666666667,0.466,1.466,offset,1000,143,5766.30244715898,NaN,0,cr,2,5767.7686962,1000,1,5768.2436305,1000,0,5767.30241460614,5768.30239193548,5769.7108046,NaN,NaN,0,NaN,0.474934300000314
SX101,prp,0,6,16,face_09,object_03,non-target,face,center,face_07,1.5,0.916666666666667,0,1.5,offset,1000,77,5769.71902047081,NaN,0,cr,2,5771.2201607,1000,1,5772.0197735,1000,0,5771.21899257665,5771.7189688473,5772.6275701,NaN,NaN,0,NaN,0.799612800000432
SX101,prp,0,6,17,face_09,object_03,non-target,object,center,object_09,1.5,1.55,0.116,0.116,onset,1100,199,5772.63563364132,NaN,0,cr,1,5772.7518399,1100,1,5773.5966898,1100,0,5774.13558867665,5774.63558756482,5776.1775277,NaN,NaN,0,NaN,0.844849899999645
SX101,prp,0,6,18,face_09,object_03,irrelevant,false_font,left,false_font_16,1.5,0.95,0,1.5,offset,1100,166,5776.18555104716,NaN,0,cr,1,5777.6865179,1100,1,5778.18943,1100,0,5777.68550808832,5778.18549398847,5779.1274032,NaN,NaN,0,NaN,0.502912100000685
SX101,prp,0,6,19,face_09,object_03,non-target,face,center,face_05,0.5,1.13333333333333,0.466,0.466,onset,1000,75,5779.13547821781,NaN,0,cr,2,5779.6017126,1100,0,5780.2164499,1100,0,5779.63546321781,5781.13544117066,5782.2605916,NaN,NaN,0,NaN,0.614737300000343
SX101,prp,0,6,20,face_09,object_03,irrelevant,false_font,center,false_font_02,1,1.03333333333333,0.232,0.232,onset,1100,132,5782.26873935314,NaN,0,cr,1,5782.5009706,1000,0,5783.0628157,1000,0,5783.26872104132,5784.26869585898,5785.2939191,NaN,NaN,0,NaN,0.561845100000028
SX101,prp,0,6,21,face_09,object_03,non-target,face,right,face_18,1,1.01666666666667,0.232,1.232,offset,1000,128,5785.30200592365,NaN,0,cr,2,5786.5341887,1000,1,5787.1436851,1000,0,5786.30197527081,5787.30195369431,5788.3105562,NaN,NaN,0,NaN,0.609496399999443
SX101,prp,0,6,22,face_09,object_03,non-target,face,center,face_03,0.5,1.51666666666667,0.116,0.616,offset,1000,73,5788.31859227665,NaN,0,cr,2,5788.9348438,1000,1,5789.5364711,1000,0,5788.81859307066,5790.31855194716,5791.8270565,NaN,NaN,0,NaN,0.601627300000473
SX101,prp,0,6,23,face_09,object_03,non-target,face,center,face_20,0.5,1.61666666666667,0.466,0.466,onset,1100,90,5791.83519558832,NaN,0,cr,1,5792.3014208,1100,1,5792.7496602,1100,0,5792.33516764132,5793.83514144716,5795.4436362,NaN,NaN,0,NaN,0.448239399999693
SX101,prp,0,6,24,face_09,object_03,irrelevant,false_font,center,false_font_18,1,1.61666666666667,0.232,1.232,offset,1100,148,5795.45176831781,NaN,0,cr,1,5796.6838219,1100,1,5797.2522618,1100,0,5796.45174750599,5797.45172532949,5799.0602337,NaN,NaN,0,NaN,0.568439900000158
SX101,prp,0,6,25,face_09,object_03,non-target,object,center,object_11,0.5,1.16666666666667,0.116,0.116,onset,1100,201,5799.06835128832,NaN,0,cr,1,5799.1845936,1100,1,5799.7218031,1100,0,5799.56833548847,5801.06830484715,5802.2267077,NaN,NaN,0,NaN,0.537209500000245
SX101,prp,0,6,26,face_09,object_03,irrelevant,false_font,center,false_font_15,1,1.68333333333333,0,0,onset,1100,145,5802.23494197066,NaN,0,cr,1,5802.235771,1100,1,5802.7838663,1100,0,5803.23491720015,5804.23493359431,5805.9100684,NaN,NaN,0,NaN,0.548095300000568
SX101,prp,0,6,27,face_09,object_03,non-target,face,left,face_13,1,1.06666666666667,0.466,0.466,onset,1000,103,5805.91818738832,NaN,0,cr,2,5806.3844592,1000,1,5806.8133752,1000,0,5806.91815877665,5807.91814184716,5808.9765802,NaN,NaN,0,NaN,0.428916000000754
SX101,prp,0,6,28,face_09,object_03,irrelevant,false_font,left,false_font_03,1.5,1.65,0.116,1.616,offset,1100,153,5808.98478834715,NaN,0,cr,1,5810.600871,1100,1,5811.0334978,1100,0,5810.48474836482,5810.98474577081,5812.6265937,NaN,NaN,0,NaN,0.432626800000435
SX101,prp,0,6,29,face_09,object_03,irrelevant,false_font,left,false_font_10,0.5,1.98333333333333,0.232,0.732,offset,1000,160,5812.63470388832,NaN,0,cr,2,5813.3668355,1000,1,5813.7688296,1000,0,5813.13468917665,5814.63465565299,5816.6098267,NaN,NaN,0,NaN,0.401994099999683
SX101,prp,0,6,30,face_09,object_03,non-target,face,right,face_15,0.5,1.05,0.116,0.116,onset,1100,125,5816.61793732964,NaN,0,cr,1,5816.7340147,1100,1,5817.3297786,1100,0,5817.11793414716,5818.61788899431,5819.6598115,NaN,NaN,0,NaN,0.595763899999838
SX101,prp,0,6,31,face_09,object_03,non-target,object,left,object_15,1,1.76666666666667,0.116,1.116,offset,1100,225,5819.66787841183,NaN,0,cr,1,5820.7841376,1000,0,5821.6373796,1000,0,5820.66784985898,5821.66781875898,5823.4262462,NaN,NaN,0,NaN,0.853242000000137
SX101,prp,0,6,32,face_09,object_03,irrelevant,letter,center,letter_20,1,1.06666666666667,0.466,0.466,onset,1000,30,5823.43445928832,NaN,0,cr,2,5823.900946,1100,0,5824.6108646,1100,0,5824.43443074132,5825.43440395314,5826.4930203,NaN,NaN,0,NaN,0.709918600000492
SX101,prp,0,6,33,face_09,object_03,target,object,left,object_03,0.5,1.5,0.232,0.732,offset,1100,213,5826.50103980015,5827.0604256,1,hit,1,5827.2331182,1100,1,5827.7401655,1,1100,5827.00103614715,5828.50100888832,5829.9927153,NaN,NaN,0,0.559385799851043,0.507047300000522
SX101,prp,0,6,34,face_09,object_03,irrelevant,false_font,right,false_font_04,0.5,0.783333333333333,0.116,0.116,onset,1000,174,5830.00097030599,NaN,0,cr,2,5830.1172235,1000,1,5830.8393623,1000,0,5830.50095538248,5832.00091342964,5832.7760214,NaN,NaN,0,NaN,0.722138799999811
SX101,prp,0,6,35,face_09,object_03,non-target,object,center,object_05,1.5,1.06666666666667,0,0,onset,1100,195,5832.78423034716,NaN,0,cr,1,5832.7851097,1000,0,5833.2876728,1000,0,5834.28420839416,5834.78418448832,5835.8426153,NaN,NaN,0,NaN,0.502563099999861
SX101,prp,0,7,1,letter_03,false_font_11,non-target,false_font,left,false_font_14,1,1.6,0.116,0.116,onset,1100,164,5853.81707862395,NaN,0,cr,1,5853.9333219,1100,1,5854.7969445,1100,0,5854.81705687664,5855.81703184715,5857.4088797,NaN,NaN,5843.40066597066,NaN,0.863622599999871
SX101,prp,0,7,2,letter_03,false_font_11,target,letter,center,letter_03,1,0.7,0.466,1.466,offset,1100,13,5857.41699838832,5857.8498328,1,hit,1,5858.8831909,1100,1,5859.2798237,1,1100,5858.41696998832,5859.41694768832,5860.1086885,NaN,NaN,0,0.432834411677504,0.396632799999679
SX101,prp,0,7,3,letter_03,false_font_11,non-target,false_font,center,false_font_07,0.5,1.15,0.466,0.966,offset,1000,137,5860.1169047711,NaN,0,cr,2,5861.0831788,1000,1,5861.5187681,1000,0,5860.61691667664,5862.11687618847,5863.2586887,NaN,NaN,0,NaN,0.435589300000174
SX101,prp,0,7,4,letter_03,false_font_11,irrelevant,face,left,face_03,1,1.56666666666667,0.466,1.466,offset,1100,93,5863.26686734716,NaN,0,cr,1,5864.7329967,1100,1,5865.1558449,1100,0,5864.26683708832,5865.26680407664,5866.8253772,NaN,NaN,0,NaN,0.422848200000772
SX101,prp,0,7,5,letter_03,false_font_11,non-target,letter,center,letter_02,0.5,0.966666666666667,0,0,onset,1100,12,5866.83344074715,NaN,0,cr,1,5866.8343305,1100,1,5867.5028464,1100,0,5867.33343281197,5868.83339521781,5869.7917965,NaN,NaN,0,NaN,0.668515899999875
SX101,prp,0,7,6,letter_03,false_font_11,non-target,false_font,left,false_font_16,0.5,1.7,0,0.5,offset,1100,166,5869.80003877081,NaN,0,cr,1,5870.3010004,1100,1,5870.7967715,1100,0,5870.30003532949,5871.79999850015,5873.49182,NaN,NaN,0,NaN,0.495771100000638
SX101,prp,0,7,7,letter_03,false_font_11,non-target,letter,center,letter_02,1.5,1.05,0.232,1.732,offset,1000,12,5873.49994966482,NaN,0,cr,2,5875.2321566,1000,1,5875.8394009,1000,0,5874.99991880015,5875.49989607081,5876.5417747,NaN,NaN,0,NaN,0.607244300000275
SX101,prp,0,7,8,letter_03,false_font_11,irrelevant,face,center,face_06,0.5,0.95,0,0,onset,1100,76,5876.54988368248,NaN,0,cr,1,5876.5509247,1100,1,5877.1308761,1100,0,5877.04986251781,5878.54984889416,5879.4916929,NaN,NaN,0,NaN,0.579951400000027
SX101,prp,0,7,9,letter_03,false_font_11,non-target,letter,left,letter_14,1,1.31666666666667,0.116,0.116,onset,1100,44,5879.49981273548,NaN,0,cr,1,5879.6159446,1100,1,5880.1238427,1100,0,5880.49979550015,5881.49975718847,5882.8082737,NaN,NaN,0,NaN,0.507898099999693
SX101,prp,0,7,10,letter_03,false_font_11,target,false_font,center,false_font_11,1.5,1.3,0.232,1.732,offset,1100,141,5882.81639905314,5883.3973929,1,hit,1,5884.5485529,1100,1,5885.0293567,1,1100,5884.31633940643,5884.81635570599,5886.1080788,NaN,NaN,0,0.580993846858291,0.480803800000103
SX101,prp,0,7,11,letter_03,false_font_11,irrelevant,object,center,object_09,1.5,1.93333333333333,0.232,1.732,offset,1000,199,5886.11632590599,NaN,0,cr,2,5887.8484272,1000,1,5888.3974651,1000,0,5887.61628511781,5888.11628411781,5890.0413357,NaN,NaN,0,NaN,0.549037900000258
SX101,prp,0,7,12,letter_03,false_font_11,irrelevant,face,center,face_14,1.5,0.916666666666667,0.116,1.616,offset,1100,84,5890.04955962964,NaN,0,cr,1,5891.6657827,1100,1,5892.128486,1100,0,5891.54952163548,5892.04951410015,5892.9581227,NaN,NaN,0,NaN,0.462703299999703
SX101,prp,0,7,13,letter_03,false_font_11,non-target,false_font,left,false_font_17,1.5,0.75,0.466,1.966,offset,1100,167,5892.96616283548,NaN,0,cr,1,5894.9322308,1100,1,5895.5033806,1100,0,5894.46612299431,5894.96611402365,5895.7079256,NaN,NaN,0,NaN,0.571149800000057
SX101,prp,0,7,14,letter_03,false_font_11,non-target,false_font,right,false_font_04,0.5,1.33333333333333,0.116,0.616,offset,1000,174,5895.71609009431,NaN,0,cr,2,5896.3321482,1000,1,5896.6984084,1000,0,5896.21608595314,5897.71604913548,5899.0411109,NaN,NaN,0,NaN,0.366260199999488
SX101,prp,0,7,15,letter_03,false_font_11,non-target,false_font,right,false_font_20,1,1.26666666666667,0.466,0.466,onset,1100,190,5899.04934945898,NaN,0,cr,1,5899.5155696,1100,1,5899.9603856,1100,0,5900.04933103548,5901.04931090015,5902.3078907,NaN,NaN,0,NaN,0.444816000000174
SX101,prp,0,7,16,letter_03,false_font_11,irrelevant,face,center,face_06,0.5,1.3,0,0,onset,1100,76,5902.31595578832,NaN,0,cr,1,5902.3168128,1100,1,5902.8444911,1100,0,5902.81593950015,5904.31590255299,5905.6077559,NaN,NaN,0,NaN,0.527678299999934
SX101,prp,0,7,17,letter_03,false_font_11,irrelevant,face,center,face_08,0.5,1.43333333333333,0.466,0.966,offset,1000,78,5905.61586660599,NaN,0,cr,2,5906.5819695,1000,1,5907.0388379,1000,0,5906.11586011781,5907.61581488248,5909.0410907,NaN,NaN,0,NaN,0.456868399999621
SX101,prp,0,7,18,letter_03,false_font_11,irrelevant,object,right,object_18,1,1.61666666666667,0.466,1.466,offset,1000,248,5909.04911720015,NaN,0,cr,2,5910.5152936,1000,1,5911.1486035,1000,0,5910.04910677665,5911.04907963533,5912.6575512,NaN,NaN,0,NaN,0.633309899999404
SX101,prp,0,7,19,letter_03,false_font_11,irrelevant,face,center,face_20,0.5,1.26666666666667,0.466,0.466,onset,1100,90,5912.66570190015,NaN,0,cr,1,5913.1318492,1100,1,5913.4556648,1100,0,5913.16569275898,5914.66566542949,5915.9242366,NaN,NaN,0,NaN,0.323815599999762
SX101,prp,0,7,20,letter_03,false_font_11,irrelevant,face,right,face_20,1.5,1.51666666666667,0.116,0.116,onset,1000,130,5915.93230214716,NaN,0,cr,2,5916.0484393,1000,1,5916.5977901,1000,0,5917.43225940599,5917.93224585898,5919.4408341,NaN,NaN,0,NaN,0.549350799999957
SX101,prp,0,7,21,letter_03,false_font_11,irrelevant,face,center,face_09,1.5,1.78333333333333,0.116,0.116,onset,1000,79,5919.44887300599,NaN,0,cr,2,5919.5649877,1000,1,5920.2605013,1000,0,5920.94882668847,5921.44883201197,5923.2240078,NaN,NaN,0,NaN,0.695513600000595
SX101,prp,0,7,22,letter_03,false_font_11,non-target,false_font,center,false_font_14,1.5,0.75,0.232,0.232,onset,1000,144,5923.23211945314,NaN,0,cr,2,5923.4643615,1000,1,5923.8656893,1000,0,5924.73210238248,5925.23207248832,5925.9739649,NaN,NaN,0,NaN,0.401327799999308
SX101,prp,0,7,23,letter_03,false_font_11,irrelevant,object,center,object_17,1,0.733333333333333,0.466,0.466,onset,1000,207,5925.98206514716,NaN,0,cr,2,5926.4482884,1000,1,5926.9179045,1000,0,5926.98203482365,5927.98205678248,5928.7072772,NaN,NaN,0,NaN,0.469616100000167
SX101,prp,0,7,24,letter_03,false_font_11,non-target,letter,center,letter_05,0.5,1.43333333333333,0.466,0.966,offset,1100,15,5928.71532804715,NaN,0,cr,1,5929.6814089,1100,1,5930.3304716,1100,0,5929.21531005314,5930.71526987081,5932.1404864,NaN,NaN,0,NaN,0.649062700000286
SX101,prp,0,7,25,letter_03,false_font_11,target,letter,center,letter_03,1.5,1.25,0.466,0.466,onset,1000,13,5932.14857124146,5932.7927577,1,hit,2,5932.6147149,1000,1,5933.4055795,1,1000,5933.64854511197,5934.14853830015,5935.3902485,NaN,NaN,0,0.644186458535842,0.790864600000532
SX101,prp,0,7,26,letter_03,false_font_11,non-target,letter,center,letter_14,1.5,1.56666666666667,0.116,0.116,onset,1000,24,5935.39849391781,NaN,0,cr,2,5935.5149471,1000,1,5935.9477618,1000,0,5936.89846234132,5937.39845083548,5938.95699,NaN,NaN,0,NaN,0.432814699999653
SX101,prp,0,7,27,letter_03,false_font_11,non-target,letter,center,letter_17,0.5,0.85,0.466,0.466,onset,1000,27,5938.96509758832,NaN,0,cr,2,5939.4312988,1000,1,5939.8998858,1000,0,5939.46506765314,5940.96503134132,5941.8068394,NaN,NaN,0,NaN,0.468587000000298
SX101,prp,0,7,28,letter_03,false_font_11,irrelevant,face,left,face_14,1.5,1.45,0.232,0.232,onset,1100,104,5941.81502382949,NaN,0,cr,1,5942.0470948,1100,1,5942.5413718,1100,0,5943.31499132365,5943.81496807664,5945.2567985,NaN,NaN,0,NaN,0.494276999999784
SX101,prp,0,7,29,letter_03,false_font_11,irrelevant,face,center,face_03,1.5,0.716666666666667,0.466,0.466,onset,1100,73,5945.26494394132,NaN,0,cr,1,5945.7310419,1100,1,5946.3237635,1100,0,5946.76491337066,5947.26489408248,5947.9733404,NaN,NaN,0,NaN,0.592721600000004
SX101,prp,0,7,30,letter_03,false_font_11,irrelevant,object,center,object_08,1,1.73333333333333,0.116,1.116,offset,1000,198,5947.98159561183,NaN,0,cr,2,5949.0978442,1000,1,5949.6843427,1000,0,5948.98152340015,5949.98150020015,5951.7066277,NaN,NaN,0,NaN,0.586498500000744
SX101,prp,0,7,31,letter_03,false_font_11,non-target,false_font,center,false_font_08,0.5,1.16666666666667,0.232,0.732,offset,1100,138,5951.71483541781,NaN,0,cr,1,5952.4470185,1100,1,5952.8777369,1100,0,5952.21477266482,5953.71477848847,5954.8733249,NaN,NaN,0,NaN,0.430718399999932
SX101,prp,0,7,32,letter_03,false_font_11,irrelevant,face,right,face_06,1,0.816666666666667,0,1,offset,1000,116,5954.88137764716,NaN,0,cr,2,5955.8824302,1000,1,5956.3878876,1000,0,5955.88135360015,5956.88133452949,5957.6899405,NaN,NaN,0,NaN,0.505457399999614
SX101,prp,0,7,33,letter_03,false_font_11,irrelevant,object,center,object_18,1,1.5,0.116,1.116,offset,1000,208,5957.69798900599,NaN,0,cr,2,5958.814082,1000,1,5959.2566658,1000,0,5958.69794987664,5959.69792311197,5961.1897888,NaN,NaN,0,NaN,0.442583799999738
SX101,prp,0,7,34,letter_03,false_font_11,non-target,false_font,center,false_font_01,1.5,1.11666666666667,0.116,0.116,onset,1000,131,5961.19789470015,NaN,0,cr,2,5961.31414,1000,1,5962.2117499,1000,0,5962.69787002949,5963.19785438832,5964.3063417,NaN,NaN,0,NaN,0.897609899999225
SX101,prp,0,7,35,letter_03,false_font_11,non-target,false_font,center,false_font_06,0.5,0.983333333333333,0.466,0.466,onset,1000,136,5964.31448633548,NaN,0,cr,2,5964.7806831,1000,1,5965.1996892,1000,0,5964.81448567066,5966.31444854715,5967.2895104,NaN,NaN,0,NaN,0.419006099999933
SX101,prp,0,8,1,letter_18,false_font_18,target,letter,center,letter_18,1.5,1.65,0.466,1.966,offset,1100,28,5983.54742449431,5984.0507484,1,hit,1,5985.513613,1100,1,5985.9137293,1,1100,5985.04734987066,5985.54733518248,5987.1891051,NaN,NaN,5975.18090724132,0.503323905691104,0.400116300000263
SX101,prp,0,8,2,letter_18,false_font_18,irrelevant,object,center,object_16,0.5,1.98333333333333,0,0.5,offset,1100,206,5987.19730048832,NaN,0,cr,1,5987.6983876,1100,1,5988.1643646,1100,0,5987.69728642949,5989.19723997664,5991.1724084,NaN,NaN,0,NaN,0.465976999999839
SX101,prp,0,8,3,letter_18,false_font_18,non-target,letter,left,letter_01,1.5,1.93333333333333,0.116,0.116,onset,1000,31,5991.18057131796,NaN,0,cr,2,5991.2966674,1000,1,5992.054384,1000,0,5992.68049931781,5993.18047235913,5995.1057756,NaN,NaN,0,NaN,0.757716600000094
SX101,prp,0,8,4,letter_18,false_font_18,irrelevant,face,right,face_13,1,1.83333333333333,0.116,1.116,offset,1100,123,5995.11377989431,NaN,0,cr,1,5996.2299072,1100,1,5996.8426344,1100,0,5996.11375953548,5997.11373178248,5998.9388508,NaN,NaN,0,NaN,0.612727200000336
SX101,prp,0,8,5,letter_18,false_font_18,non-target,false_font,center,false_font_20,1,1.4,0.232,1.232,offset,1000,150,5998.94702315898,NaN,0,cr,2,6000.1793065,1000,1,6001.0770386,1000,0,5999.94698721197,6000.94697358832,6002.3388709,NaN,NaN,0,NaN,0.897732100000212
SX101,prp,0,8,6,letter_18,false_font_18,non-target,false_font,left,false_font_13,1,0.766666666666667,0.116,1.116,offset,1100,163,6002.34694968832,NaN,0,cr,1,6003.4630023,1100,1,6004.1503802,1100,0,6003.34698674715,6004.34689621183,6005.1053304,NaN,NaN,0,NaN,0.687377899999774
SX101,prp,0,8,7,letter_18,false_font_18,irrelevant,object,center,object_11,1.5,1.13333333333333,0.466,1.966,offset,1100,201,6005.11355255299,NaN,0,cr,1,6007.079869,1100,1,6007.4136802,1100,0,6006.61351578832,6007.11349752365,6008.2386047,NaN,NaN,0,NaN,0.333811200000127
SX101,prp,0,8,8,letter_18,false_font_18,irrelevant,object,left,object_11,1.5,1.85,0.232,1.732,offset,1100,221,6008.24681380599,NaN,0,cr,1,6009.9790781,1100,1,6010.5016648,1100,0,6009.74682944132,6010.24675688832,6012.0885146,NaN,NaN,0,NaN,0.52258669999992
SX101,prp,0,8,9,letter_18,false_font_18,target,letter,left,letter_18,1,0.916666666666667,0,0,onset,1000,48,6012.09671504716,NaN,0,miss,2,6012.0975947,1000,1,6012.7406802,1000,0,6013.09674898832,6014.09667178248,6015.0050852,NaN,NaN,0,NaN,0.64308549999987
SX101,prp,0,8,10,letter_18,false_font_18,non-target,letter,center,letter_14,1,1.1,0,0,onset,1100,24,6015.01335521781,NaN,0,cr,1,6015.014516,1100,1,6015.3974013,1100,0,6016.01328280015,6017.01327378832,6018.1050382,NaN,NaN,0,NaN,0.382885299999543
SX101,prp,0,8,11,letter_18,false_font_18,non-target,false_font,right,false_font_08,1,1.91666666666667,0.116,1.116,offset,1000,178,6018.11323337081,NaN,0,cr,2,6019.2293671,1100,0,6020.0113728,1100,0,6019.11322174132,6020.11318711197,6022.0217295,NaN,NaN,0,NaN,0.7820056999999
SX101,prp,0,8,12,letter_18,false_font_18,non-target,false_font,center,false_font_12,1,0.883333333333333,0,0,onset,1100,142,6022.02981840599,NaN,0,cr,1,6022.0306743,1000,0,6022.5036348,1000,0,6023.02979226482,6024.02975657081,6024.9050991,NaN,NaN,0,NaN,0.472960500000227
SX101,prp,0,8,13,letter_18,false_font_18,irrelevant,object,left,object_17,1,1.63333333333333,0,1,offset,1000,227,6024.91308558832,NaN,0,cr,2,6025.9142632,1100,0,6026.4427978,1100,0,6025.91305479431,6026.91303392949,6028.5381355,NaN,NaN,0,NaN,0.528534600000057
SX101,prp,0,8,14,letter_18,false_font_18,target,false_font,right,false_font_18,1,0.85,0.116,1.116,offset,1000,188,6028.54633548248,6029.2144553,1,hit,2,6029.6625668,0,NaN,NaN,1,0,6029.54629461197,6030.54628962365,6031.3880845,NaN,NaN,0,0.668119817515617,NaN
SX101,prp,0,8,15,letter_18,false_font_18,irrelevant,object,center,object_15,1,1.45,0,0,onset,1000,205,6031.39627082365,NaN,0,cr,2,6031.397268,1100,0,6031.8437741,1100,0,6032.39623864715,6033.39622090015,6034.8380502,NaN,NaN,0,NaN,0.446506100000079
SX101,prp,0,8,16,letter_18,false_font_18,target,false_font,right,false_font_18,0.5,1.13333333333333,0.116,0.116,onset,1000,188,6034.84618678832,6035.5616443,1,hit,2,6034.9623166,1100,0,6036.2168248,1,1100,6035.34617484132,6036.84613879431,6037.9712036,NaN,NaN,0,0.715457511677414,1.25450819999969
SX101,prp,0,8,17,letter_18,false_font_18,non-target,false_font,center,false_font_01,0.5,0.9,0.116,0.616,offset,1000,131,6037.97944249431,NaN,0,cr,2,6038.5955589,1100,0,6039.0192909,1100,0,6038.47943718832,6039.97946421183,6040.871309,NaN,NaN,0,NaN,0.4237320000002
SX101,prp,0,8,18,letter_18,false_font_18,non-target,letter,center,letter_15,0.5,1.23333333333333,0.466,0.966,offset,1000,25,6040.87937738832,NaN,0,cr,2,6041.8454416,1000,1,6042.3943879,1000,0,6041.37936818832,6042.87932502949,6044.1043931,NaN,NaN,0,NaN,0.548946299999443
SX101,prp,0,8,19,letter_18,false_font_18,target,false_font,left,false_font_18,0.5,0.9,0.466,0.466,onset,1000,168,6044.11263463548,6044.6976764,1,hit,2,6044.5788601,1000,1,6044.9106922,1,1000,6044.61260878847,6046.11258282949,6047.0043146,NaN,NaN,0,0.58504176452243,0.331832099999701
SX101,prp,0,8,20,letter_18,false_font_18,non-target,letter,left,letter_07,1.5,1.13333333333333,0,0,onset,1000,37,6047.01256871781,NaN,0,cr,2,6047.0135906,1100,0,6047.682892,1100,0,6048.51253405898,6049.01252191781,6050.1377613,NaN,NaN,0,NaN,0.669301400000222
SX101,prp,0,8,21,letter_18,false_font_18,non-target,letter,right,letter_17,1,1.18333333333333,0.232,0.232,onset,1000,67,6050.14583014132,NaN,0,cr,2,6050.377866,1000,1,6050.8527576,1000,0,6051.14580420015,6052.14576959431,6053.3208795,NaN,NaN,0,NaN,0.474891599999864
SX101,prp,0,8,22,letter_18,false_font_18,non-target,false_font,center,false_font_13,1,0.7,0.466,0.466,onset,1000,143,6053.32908662949,NaN,0,cr,2,6053.7953915,1000,1,6054.0784171,1000,0,6054.32906598832,6055.32903192365,6056.0209565,NaN,NaN,0,NaN,0.283025599999746
SX101,prp,0,8,23,letter_18,false_font_18,non-target,false_font,right,false_font_12,1,0.783333333333333,0.232,1.232,offset,1000,182,6056.02901761781,NaN,0,cr,2,6057.2611671,1000,1,6057.3983569,1000,0,6057.02900701183,6058.02897605898,6058.8041913,NaN,NaN,0,NaN,0.13718979999976
SX101,prp,0,8,24,letter_18,false_font_18,irrelevant,face,left,face_12,1.5,0.983333333333333,0,1.5,offset,1100,102,6058.81228742365,NaN,0,cr,1,6060.3132768,1100,1,6060.6407235,1100,0,6060.31226190599,6060.81223580015,6061.7874958,NaN,NaN,0,NaN,0.32744670000011
SX101,prp,0,8,25,letter_18,false_font_18,non-target,false_font,center,false_font_04,0.5,1.21666666666667,0,0,onset,1000,134,6061.79555352949,NaN,0,cr,2,6061.796397,1100,0,6062.3217222,1100,0,6062.29554898248,6063.79550415314,6065.0039242,NaN,NaN,0,NaN,0.525325200000225
SX101,prp,0,8,26,letter_18,false_font_18,irrelevant,face,left,face_05,1.5,0.8,0.116,1.616,offset,1000,95,6065.01214220015,NaN,0,cr,2,6066.6283939,1000,1,6067.148699,1000,0,6066.51211544132,6067.01210686482,6067.8039327,NaN,NaN,0,NaN,0.52030509999986
SX101,prp,0,8,27,letter_18,false_font_18,non-target,letter,left,letter_12,1.5,0.966666666666667,0.232,0.232,onset,1100,42,6067.81208142365,NaN,0,cr,1,6068.0441608,1100,1,6068.5327177,1100,0,6069.31204871197,6069.81208638847,6070.7705421,NaN,NaN,0,NaN,0.488556899999821
SX101,prp,0,8,28,letter_18,false_font_18,irrelevant,object,center,object_05,0.5,1.28333333333333,0,0.5,offset,1000,195,6070.77867517664,NaN,0,cr,2,6071.2797258,1000,1,6071.7345961,1000,0,6071.27866998832,6072.77862798248,6074.0538644,NaN,NaN,0,NaN,0.454870300000039
SX101,prp,0,8,29,letter_18,false_font_18,irrelevant,object,center,object_01,1,1.41666666666667,0,0,onset,1100,191,6074.06193522949,NaN,0,cr,1,6074.0627799,1100,1,6074.6157789,1100,0,6075.06190454132,6076.06186411811,6077.4702933,NaN,NaN,0,NaN,0.552998999999545
SX101,prp,0,8,30,letter_18,false_font_18,non-target,letter,right,letter_08,0.5,1.03333333333333,0.232,0.732,offset,1100,58,6077.47851971183,NaN,0,cr,1,6078.2107731,1100,1,6078.8194322,1100,0,6077.97851887066,6079.47847945299,6080.5036237,NaN,NaN,0,NaN,0.608659100000295
SX101,prp,0,8,31,letter_18,false_font_18,target,letter,right,letter_18,1,0.883333333333333,0.116,0.116,onset,1000,68,6080.51178424716,6081.194372,1,hit,2,6080.6278646,1000,1,6081.670715,1,1000,6081.51176084716,6082.51178058832,6083.3867918,NaN,NaN,0,0.682587752844483,1.04285040000013
SX101,prp,0,8,32,letter_18,false_font_18,irrelevant,object,left,object_01,1,0.95,0,0,onset,1000,211,6083.3950335003,NaN,0,cr,2,6083.3962612,1100,0,6083.8773509,1100,0,6084.39503295898,6085.39500376482,6086.3367384,NaN,NaN,0,NaN,0.481089700000666
SX101,prp,0,8,33,letter_18,false_font_18,irrelevant,face,left,face_14,1,1.76666666666667,0.232,1.232,offset,1100,104,6086.34497671781,NaN,0,cr,1,6087.5770182,1100,1,6087.99831,1100,0,6087.34497128832,6088.34493922365,6090.1033667,NaN,NaN,0,NaN,0.42129180000029
SX101,prp,0,8,34,letter_18,false_font_18,irrelevant,face,center,face_19,1,1.06666666666667,0.232,1.232,offset,1100,89,6090.11156171781,NaN,0,cr,1,6091.3437657,1100,1,6091.6764554,1100,0,6091.11153647081,6092.11152200599,6093.1701115,NaN,NaN,0,NaN,0.332689699999719
SX101,prp,0,8,35,letter_18,false_font_18,irrelevant,object,center,object_18,0.5,1.26666666666667,0.466,0.966,offset,1100,208,6093.17816448248,NaN,0,cr,1,6094.1443965,1100,1,6094.6914252,1100,0,6093.67813647081,6095.17815054132,6096.4366645,NaN,NaN,0,NaN,0.547028699999828
SX101,prp,0,8,36,letter_18,false_font_18,irrelevant,face,right,face_11,1,0.95,0,1,offset,1000,121,6096.44475395299,NaN,0,cr,2,6097.4458469,1000,1,6098.2296518,1000,0,6097.44471593548,6098.44470350015,6099.3866016,NaN,NaN,0,NaN,0.783804900000177
SX101,prp,0,8,37,letter_18,false_font_18,non-target,false_font,center,false_font_15,0.5,1,0.116,0.116,onset,1000,145,6099.39468343548,NaN,0,cr,2,6099.5108088,1000,1,6100.2914576,1000,0,6099.89467256482,6101.39463261781,6102.3865273,NaN,NaN,0,NaN,0.780648800000563
SX101,prp,0,8,38,letter_18,false_font_18,irrelevant,face,center,face_18,1,1.66666666666667,0.466,0.466,onset,1000,88,6102.39461915898,NaN,0,cr,2,6102.8607551,1000,1,6103.5425639,1000,0,6103.39458717664,6104.39461941781,6106.052991,NaN,NaN,0,NaN,0.681808799999999
SX101,prp,0,9,1,letter_07,false_font_10,non-target,letter,center,letter_13,1.5,1.18333333333333,0.466,0.466,onset,1000,23,6128.04402092365,NaN,0,cr,2,6128.5101023,1100,0,6129.2593172,1100,0,6129.54397895898,6130.04397784716,6131.2190513,NaN,NaN,6121.17751070015,NaN,0.74921489999997
SX101,prp,0,9,2,letter_07,false_font_10,irrelevant,face,center,face_19,1,1.3,0.466,1.466,offset,1100,89,6131.22727844132,NaN,0,cr,1,6132.6934349,1100,1,6133.4507326,1100,0,6132.22725578832,6133.22721937664,6134.5190904,NaN,NaN,0,NaN,0.757297699999981
SX101,prp,0,9,3,letter_07,false_font_10,irrelevant,face,center,face_17,1,1.35,0.232,0.232,onset,1000,87,6134.52720254715,NaN,0,cr,2,6134.7593932,1000,1,6135.220575,1000,0,6135.52717571183,6136.52715401781,6137.8690243,NaN,NaN,0,NaN,0.461181800000304
SX101,prp,0,9,4,letter_07,false_font_10,irrelevant,face,center,face_12,1.5,1.31666666666667,0,0,onset,1000,82,6137.87711834132,NaN,0,cr,2,6137.8782115,1000,1,6138.3852985,1000,0,6139.37709114715,6139.87706861197,6141.1856771,NaN,NaN,0,NaN,0.507086999999956
SX101,prp,0,9,5,letter_07,false_font_10,non-target,false_font,right,false_font_08,1.5,1.01666666666667,0.232,0.232,onset,1000,178,6141.19371762949,NaN,0,cr,2,6141.4257644,1000,1,6141.9207995,1000,0,6142.69368120599,6143.19366370015,6144.2021176,NaN,NaN,0,NaN,0.495035099999768
SX101,prp,0,9,6,letter_07,false_font_10,irrelevant,face,right,face_15,0.5,0.866666666666667,0,0,onset,1100,125,6144.21029653548,NaN,0,cr,1,6144.211363,1100,1,6144.7513484,1100,0,6144.71030164132,6146.21025764132,6147.0687973,NaN,NaN,0,NaN,0.53998539999975
SX101,prp,0,9,7,letter_07,false_font_10,non-target,false_font,center,false_font_17,1.5,0.916666666666667,0.116,1.616,offset,1000,147,6147.07690227664,NaN,0,cr,2,6148.6929777,1000,1,6149.0648106,1000,0,6148.57686381781,6149.07686220015,6149.9854132,NaN,NaN,0,NaN,0.3718329000003
SX101,prp,0,9,8,letter_07,false_font_10,irrelevant,face,center,face_18,1.5,0.766666666666667,0.116,1.616,offset,1000,88,6149.9934969,NaN,0,cr,2,6151.6097067,1000,1,6152.1447289,1000,0,6151.49351747665,6151.9934822238,6152.7520549,NaN,NaN,0,NaN,0.53502219999973
SX101,prp,0,9,9,letter_07,false_font_10,non-target,false_font,right,false_font_13,1.5,1,0.116,0.116,onset,1100,183,6152.76010238832,NaN,0,cr,1,6152.8761548,1000,0,6153.718804,1000,0,6154.26007625898,6154.76006160599,6155.7520487,NaN,NaN,0,NaN,0.842649199999869
SX101,prp,0,9,10,letter_07,false_font_10,non-target,letter,left,letter_06,0.5,0.85,0.466,0.466,onset,1100,36,6155.76003150599,NaN,0,cr,1,6156.2262152,1100,1,6156.5783434,1100,0,6156.26002118248,6157.75998333548,6158.6017397,NaN,NaN,0,NaN,0.352128200000152
SX101,prp,0,9,11,letter_07,false_font_10,non-target,false_font,center,false_font_17,0.5,1.15,0.232,0.232,onset,1100,147,6158.60997271781,NaN,0,cr,1,6158.8421872,1100,1,6159.3527252,1100,0,6159.10996012949,6160.60992342949,6161.7519346,NaN,NaN,0,NaN,0.510538000000452
SX101,prp,0,9,12,letter_07,false_font_10,target,false_font,center,false_font_10,1.5,0.983333333333333,0.466,1.966,offset,1100,140,6161.75988950015,6162.4017704,1,hit,1,6163.7260616,1100,1,6164.1265789,1,1100,6163.25985117664,6163.75984714715,6164.7349086,NaN,NaN,0,0.641880899851458,0.400517299999592
SX101,prp,0,9,13,letter_07,false_font_10,irrelevant,object,center,object_20,1,0.816666666666667,0.116,0.116,onset,1000,210,6164.74315702964,NaN,0,cr,2,6164.8593064,1000,1,6165.7682974,1000,0,6165.74314010599,6166.74310477664,6167.5515783,NaN,NaN,0,NaN,0.908991000000242
SX101,prp,0,9,14,letter_07,false_font_10,non-target,false_font,left,false_font_02,1,1.01666666666667,0.116,1.116,offset,1100,152,6167.55975657081,NaN,0,cr,1,6168.6759763,1100,1,6169.196566,1100,0,6168.55974320599,6169.55970665314,6170.5683388,NaN,NaN,0,NaN,0.520589699999618
SX101,prp,0,9,15,letter_07,false_font_10,irrelevant,face,right,face_04,1.5,0.866666666666667,0.116,1.616,offset,1000,114,6170.57635367664,NaN,0,cr,2,6172.1924886,1000,1,6172.8052908,1000,0,6172.07631707664,6172.57630274132,6173.4348052,NaN,NaN,0,NaN,0.61280220000026
SX101,prp,0,9,16,letter_07,false_font_10,irrelevant,object,left,object_19,1.5,1.2,0.466,0.466,onset,1000,229,6173.44294823548,NaN,0,cr,2,6173.9092766,1000,1,6174.407538,1000,0,6174.94292098832,6175.44290974715,6176.6347459,NaN,NaN,0,NaN,0.498261400000047
SX101,prp,0,9,17,letter_07,false_font_10,target,false_font,center,false_font_10,1,1.36666666666667,0.466,0.466,onset,1000,140,6176.64286929431,6177.284259,1,hit,2,6177.1089323,0,NaN,NaN,1,0,6177.64287743548,6178.64283157665,6180.0014235,NaN,NaN,0,0.641389705690926,NaN
SX101,prp,0,9,18,letter_07,false_font_10,non-target,letter,right,letter_04,1,0.8,0.466,1.466,offset,1100,54,6180.00947204132,NaN,0,cr,1,6181.4755849,1100,1,6182.5918111,1100,0,6181.00944635898,6182.00942540599,6182.8013354,NaN,NaN,0,NaN,1.1162261999998
SX101,prp,0,9,19,letter_07,false_font_10,irrelevant,face,center,face_13,1,1.6,0,0,onset,1100,83,6182.80951587066,NaN,0,cr,1,6182.8103689,1100,1,6183.4915846,1100,0,6183.80936477081,6184.80934712964,6186.4012989,NaN,NaN,0,NaN,0.681215700000394
SX101,prp,0,9,20,letter_07,false_font_10,target,false_font,center,false_font_10,0.5,1.96666666666667,0.232,0.732,offset,1100,140,6186.40932062365,6187.0187119,1,hit,1,6187.1414477,1100,1,6187.5833353,1,1100,6186.90931622949,6188.40927288248,6190.3676673,NaN,NaN,0,0.609391276349015,0.441887599999973
SX101,prp,0,9,21,letter_07,false_font_10,non-target,letter,left,letter_11,0.5,1.48333333333333,0,0.5,offset,1100,41,6190.37588619431,NaN,0,cr,1,6190.8770837,1100,1,6191.2623807,1100,0,6190.87587180015,6192.37585272949,6193.8509695,NaN,NaN,0,NaN,0.385296999999809
SX101,prp,0,9,22,letter_07,false_font_10,irrelevant,face,right,face_02,0.5,1.01666666666667,0.466,0.466,onset,1100,112,6193.85914473548,NaN,0,cr,1,6194.325239,1100,1,6194.7042783,1100,0,6194.35912447664,6195.85910370599,6196.8676537,NaN,NaN,0,NaN,0.379039299999931
SX101,prp,0,9,23,letter_07,false_font_10,irrelevant,object,right,object_19,1,1.28333333333333,0.116,1.116,offset,1000,249,6196.87574131781,NaN,0,cr,2,6197.9918631,1100,0,6198.2662921,1100,1000,6197.87572022949,6198.87568963548,6200.1507514,NaN,NaN,0,NaN,0.274429000000055
SX101,prp,0,9,24,letter_07,false_font_10,irrelevant,face,center,face_18,0.5,1.51666666666667,0.232,0.232,onset,1100,88,6200.15899246482,NaN,0,cr,1,6200.3912079,1100,1,6201.1433173,1100,0,6200.65899228832,6202.15894431781,6203.6675166,NaN,NaN,0,NaN,0.752109399999426
SX101,prp,0,9,25,letter_07,false_font_10,non-target,false_font,center,false_font_01,0.5,1.9,0.116,0.616,offset,1000,131,6203.67557820599,NaN,0,cr,2,6204.291676,1000,1,6204.7033685,1000,0,6204.17555833548,6205.6755282238,6207.5674234,NaN,NaN,0,NaN,0.411692499999845
SX101,prp,0,9,26,letter_07,false_font_10,non-target,letter,right,letter_18,1.5,1,0.232,1.732,offset,1000,68,6207.57548885898,NaN,0,cr,2,6209.3075718,1100,0,6209.8334222,1100,0,6209.07544197081,6209.57544304716,6210.5674215,NaN,NaN,0,NaN,0.525850400000309
SX101,prp,0,9,27,letter_07,false_font_10,irrelevant,object,right,object_01,1,1.2,0.232,1.232,offset,1000,231,6210.57541927066,NaN,0,cr,2,6211.807516,1000,1,6212.643289,1000,0,6211.57539498832,6212.57537214715,6213.7674123,NaN,NaN,0,NaN,0.83577299999979
SX101,prp,0,9,28,letter_07,false_font_10,non-target,false_font,center,false_font_19,1.5,1.4,0.466,0.466,onset,1100,149,6213.77534294132,NaN,0,cr,1,6214.2413839,1100,1,6214.8883095,1100,0,6215.27530307664,6215.77530111197,6217.1672474,NaN,NaN,0,NaN,0.646925600000031
SX101,prp,0,9,29,letter_07,false_font_10,non-target,letter,left,letter_13,1,1.03333333333333,0.116,0.116,onset,1000,43,6217.17526079431,NaN,0,cr,2,6217.2913914,1000,1,6217.7283875,1000,0,6218.17524225898,6219.17523387066,6220.2002966,NaN,NaN,0,NaN,0.436996100000215
SX101,prp,0,9,30,letter_07,false_font_10,irrelevant,object,center,object_16,1.5,0.833333333333333,0,0,onset,1100,206,6220.20853130599,NaN,0,cr,1,6220.2095677,1100,1,6220.7923365,1100,0,6221.70849738832,6222.20849175898,6223.0336202,NaN,NaN,0,NaN,0.58276879999994
SX101,prp,0,9,31,letter_07,false_font_10,target,letter,center,letter_07,0.5,0.85,0.116,0.616,offset,1100,17,6223.04179893548,6223.6882595,1,hit,1,6223.6580242,1100,1,6224.2647414,1,1100,6223.54178660015,6225.04179230015,6225.8834838,NaN,NaN,0,0.646460564522386,0.606717200000276
SX101,prp,0,9,32,letter_07,false_font_10,irrelevant,object,right,object_08,0.5,1.45,0.116,0.616,offset,1000,238,6225.89173804132,NaN,0,cr,2,6226.5079646,1000,1,6226.9497485,1000,0,6226.39171483548,6227.89168692949,6229.333622,NaN,NaN,0,NaN,0.441783899999791
SX101,prp,0,9,33,letter_07,false_font_10,non-target,false_font,right,false_font_17,1.5,0.966666666666667,0,0,onset,1000,187,6229.34166467066,NaN,0,cr,2,6229.3425332,1000,1,6229.8662614,1000,0,6230.84162231781,6231.34165081781,6232.3000836,NaN,NaN,0,NaN,0.523728200000733
SX101,prp,0,9,34,letter_07,false_font_10,non-target,false_font,left,false_font_11,1.5,1.26666666666667,0.466,1.966,offset,1000,161,6232.30825138248,NaN,0,cr,2,6234.274467,1000,1,6234.8635668,1000,0,6233.80821642949,6234.30821062949,6235.5666638,NaN,NaN,0,NaN,0.589099799999531
SX101,prp,0,9,35,letter_07,false_font_10,irrelevant,object,right,object_01,1.5,1.83333333333333,0.232,0.232,onset,1100,231,6235.57484298248,NaN,0,cr,1,6235.8069011,1100,1,6236.3244169,1100,0,6237.07480081781,6237.57479598832,6239.399885,NaN,NaN,0,NaN,0.517515800000183
SX101,prp,0,9,36,letter_07,false_font_10,non-target,letter,center,letter_16,1.5,1.93333333333333,0,0,onset,1000,26,6239.40808063548,NaN,0,cr,2,6239.4092744,1000,1,6240.6095898,1000,0,6240.90805031781,6241.40803317664,6243.3332025,NaN,NaN,0,NaN,1.20031540000036
SX101,prp,0,10,1,letter_15,false_font_12,target,false_font,right,false_font_12,1,1.26666666666667,0,1,offset,1000,182,6266.32413891183,6267.0740108,1,hit,2,6267.325168,1100,0,6267.7668516,1,1100,6267.32410260015,6268.32408121781,6269.58248,NaN,NaN,6256.22436950599,0.749871888174312,0.441683600000033
SX101,prp,0,10,2,letter_15,false_font_12,non-target,letter,right,letter_20,0.5,1,0,0.5,offset,1000,70,6269.59070813548,NaN,0,cr,2,6270.0918089,1000,1,6270.4915387,1000,0,6270.09070316482,6271.59066463548,6272.582464,NaN,NaN,0,NaN,0.399729800000387
SX101,prp,0,10,3,letter_15,false_font_12,target,letter,center,letter_15,1,1.15,0.466,1.466,offset,1100,25,6272.59064705898,6273.3126069,1,hit,1,6274.056786,1100,1,6274.5034392,1,1100,6273.59061791197,6274.59061287066,6275.7323209,NaN,NaN,0,0.72195984101927,0.446653199999673
SX101,prp,0,10,4,letter_15,false_font_12,non-target,letter,center,letter_01,1.5,0.716666666666667,0.232,0.232,onset,1100,11,6275.74057337664,NaN,0,cr,1,6275.9726279,1100,1,6276.5575964,1100,0,6277.24053427665,6277.74052294132,6278.4490193,NaN,NaN,0,NaN,0.584968500000286
SX101,prp,0,10,5,letter_15,false_font_12,irrelevant,face,center,face_04,1,0.766666666666667,0.116,1.116,offset,1100,74,6278.45718008248,NaN,0,cr,1,6279.5732232,1100,1,6280.0337468,1100,0,6279.45716220015,6280.45712694132,6281.2157321,NaN,NaN,0,NaN,0.46052359999976
SX101,prp,0,10,6,letter_15,false_font_12,irrelevant,object,left,object_13,1,0.866666666666667,0.232,1.232,offset,1100,223,6281.22377548248,NaN,0,cr,1,6282.4558752,1100,1,6282.8247334,1100,0,6282.22375558832,6283.22375072949,6284.0821272,NaN,NaN,0,NaN,0.368858199999522
SX101,prp,0,10,7,letter_15,false_font_12,irrelevant,object,center,object_02,1,1.51666666666667,0.116,0.116,onset,1100,192,6284.09038120599,NaN,0,cr,1,6284.2064677,1100,1,6284.6823236,1100,0,6285.09036341781,6286.09032567665,6287.5987806,NaN,NaN,0,NaN,0.47585590000017
SX101,prp,0,10,8,letter_15,false_font_12,non-target,letter,center,letter_12,1,1.08333333333333,0.466,1.466,offset,1000,22,6287.60696041197,NaN,0,cr,2,6289.073142,1000,1,6289.5497902,1000,0,6288.60694480015,6289.60692925299,6290.6820448,NaN,NaN,0,NaN,0.476648199999545
SX101,prp,0,10,9,letter_15,false_font_12,irrelevant,object,center,object_14,1.5,0.733333333333333,0.466,0.466,onset,1100,204,6290.69022674716,NaN,0,cr,1,6291.1564234,1100,1,6291.5535373,1100,0,6292.19019080599,6292.69018274132,6293.4153827,NaN,NaN,0,NaN,0.397113900000477
SX101,prp,0,10,10,letter_15,false_font_12,non-target,letter,center,letter_11,1,1.45,0,0,onset,1000,21,6293.42350315299,NaN,0,cr,2,6293.4243752,1000,1,6293.9197329,1000,0,6294.42348046482,6295.42345834716,6296.8652296,NaN,NaN,0,NaN,0.495357699999659
SX101,prp,0,10,11,letter_15,false_font_12,irrelevant,face,center,face_05,1.5,1.36666666666667,0.466,0.466,onset,1100,75,6296.87341609431,NaN,0,cr,1,6297.3395081,1100,1,6297.8977135,1100,0,6298.3733753473,6298.87336910015,6300.2318359,NaN,NaN,0,NaN,0.558205399999679
SX101,prp,0,10,12,letter_15,false_font_12,target,false_font,left,false_font_12,1.5,1.3,0,0,onset,1000,162,6300.2400077,6301.0272757,1,hit,2,6300.2408018,1000,1,6301.3827284,1,1000,6301.73996910015,6302.23995661781,6303.5316848,NaN,NaN,0,0.78726800000004,1.14192660000026
SX101,prp,0,10,13,letter_15,false_font_12,non-target,letter,center,letter_11,1.5,1.48333333333333,0.232,0.232,onset,1100,21,6303.53992290015,NaN,0,cr,1,6303.772075,1100,1,6304.2316854,1100,0,6305.03989407664,6305.53988330015,6307.0151502,NaN,NaN,0,NaN,0.459610400000201
SX101,prp,0,10,14,letter_15,false_font_12,non-target,false_font,center,false_font_19,1.5,1.08333333333333,0.466,0.466,onset,1000,149,6307.0231682473,NaN,0,cr,2,6307.4892357,1000,1,6307.9783845,1000,0,6308.52314575898,6309.02312582964,6310.098277,NaN,NaN,0,NaN,0.489148800000294
SX101,prp,0,10,15,letter_15,false_font_12,irrelevant,face,right,face_02,1,1.58333333333333,0.232,1.232,offset,1000,112,6310.10644271781,NaN,0,cr,2,6311.3385066,1000,1,6312.0586521,1000,0,6311.10641164716,6312.10639068832,6313.6816003,NaN,NaN,0,NaN,0.720145499999489
SX101,prp,0,10,16,letter_15,false_font_12,irrelevant,face,center,face_10,1.5,0.916666666666667,0.466,1.966,offset,1000,80,6313.68969087664,NaN,0,cr,2,6315.655823,1000,1,6316.1616943,1000,0,6315.18964966482,6315.68963994716,6316.5981697,NaN,NaN,0,NaN,0.505871299999853
SX101,prp,0,10,17,letter_15,false_font_12,non-target,letter,center,letter_07,0.5,1.61666666666667,0,0.5,offset,1100,17,6316.60629631183,NaN,0,cr,1,6317.1075194,1100,1,6317.808805,1100,0,6317.10626359431,6318.60623841781,6320.2148108,NaN,NaN,0,NaN,0.701285600000119
SX101,prp,0,10,18,letter_15,false_font_12,irrelevant,face,center,face_03,1,1.03333333333333,0.466,1.466,offset,1000,73,6320.22287594132,NaN,0,cr,2,6321.6889724,1000,1,6322.1462846,1000,0,6321.22285040015,6322.22282361197,6323.2480234,NaN,NaN,0,NaN,0.45731220000016
SX101,prp,0,10,19,letter_15,false_font_12,irrelevant,face,center,face_16,1.5,0.783333333333333,0,0,onset,1100,86,6323.25612245314,NaN,0,cr,1,6323.2572334,1100,1,6323.6906361,1100,0,6324.75609194716,6325.25609352949,6326.0311792,NaN,NaN,0,NaN,0.433402700000443
SX101,prp,0,10,20,letter_15,false_font_12,irrelevant,face,center,face_16,0.5,1.51666666666667,0,0.5,offset,1000,86,6326.03940542365,NaN,0,cr,2,6326.5403999,1000,1,6326.8853578,1000,0,6326.53938210599,6328.03935465299,6329.5478314,NaN,NaN,0,NaN,0.344957899999827
SX101,prp,0,10,21,letter_15,false_font_12,non-target,false_font,center,false_font_13,1,0.933333333333333,0.116,0.116,onset,1100,143,6329.55597965314,NaN,0,cr,1,6329.6721944,1100,1,6330.2346138,1100,0,6330.55594638263,6331.55594527066,6332.4810212,NaN,NaN,0,NaN,0.562419400000181
SX101,prp,0,10,22,letter_15,false_font_12,non-target,false_font,center,false_font_20,0.5,1.03333333333333,0.232,0.232,onset,1000,150,6332.48924314132,NaN,0,cr,2,6332.721459,1000,1,6333.151648,1000,0,6332.98922900614,6334.48920314716,6335.5143227,NaN,NaN,0,NaN,0.4301889999997
SX101,prp,0,10,23,letter_15,false_font_12,irrelevant,face,right,face_14,1,1.26666666666667,0,0,onset,1000,124,6335.52249960614,NaN,0,cr,2,6335.5236578,1000,1,6336.0203399,1000,0,6336.52247633548,6337.52246017664,6338.7809367,NaN,NaN,0,NaN,0.496682099999816
SX101,prp,0,10,24,letter_15,false_font_12,target,false_font,center,false_font_12,1.5,1.46666666666667,0.116,1.616,offset,1100,142,6338.78910662949,6339.4442729,1,hit,1,6340.4053641,1100,1,6340.8253584,1,1100,6340.28907158832,6340.78905195898,6342.2474479,NaN,NaN,0,0.655166270509653,0.419994300000326
SX101,prp,0,10,25,letter_15,false_font_12,non-target,false_font,center,false_font_10,1.5,1.25,0,0,onset,1100,140,6342.25568157664,NaN,0,cr,1,6342.2567082,1000,0,6342.7935223,1000,0,6343.75564860599,6344.25563847664,6345.4974026,NaN,NaN,0,NaN,0.536814100000811
SX101,prp,0,10,26,letter_15,false_font_12,non-target,letter,center,letter_12,0.5,1.65,0.232,0.232,onset,1000,22,6345.50560406482,NaN,0,cr,2,6345.7378005,1100,0,6346.2032438,1100,0,6346.00559990599,6347.50557081183,6349.1474734,NaN,NaN,0,NaN,0.465443299999606
SX101,prp,0,10,27,letter_15,false_font_12,non-target,letter,left,letter_10,1.5,1.6,0.466,1.966,offset,1100,40,6349.15551655898,NaN,0,cr,1,6351.1217822,1100,1,6351.8035604,1100,0,6350.65549772949,6351.15547967066,6352.7472459,NaN,NaN,0,NaN,0.681778199999826
SX101,prp,0,10,28,letter_15,false_font_12,non-target,false_font,center,false_font_15,1,1.15,0,0,onset,1000,145,6352.75544327664,NaN,0,cr,2,6352.7564387,1000,1,6353.4392801,1000,0,6353.75541362949,6354.75538963548,6355.8973271,NaN,NaN,0,NaN,0.682841400000143
SX101,prp,0,10,29,letter_15,false_font_12,irrelevant,face,left,face_10,1.5,0.883333333333333,0,0,onset,1000,100,6355.90535847081,NaN,0,cr,2,6355.9065971,1000,1,6356.4105418,1000,0,6357.40536171183,6357.90533151183,6358.7805078,NaN,NaN,0,NaN,0.50394469999992
SX101,prp,0,10,30,letter_15,false_font_12,irrelevant,object,center,object_01,1,0.85,0.116,0.116,onset,1100,191,6358.78863412949,NaN,0,cr,1,6358.9046802,1100,1,6359.6565505,1100,0,6359.78860439431,6360.78859207066,6361.6304263,NaN,NaN,0,NaN,0.751870299999609
SX101,prp,0,10,31,letter_15,false_font_12,target,letter,center,letter_15,0.5,1.3,0,0.5,offset,1100,25,6361.63856387665,6362.2333608,1,hit,1,6362.1395507,1000,0,6362.7273538,1,1000,6362.13856408832,6363.63851548248,6364.9302472,NaN,NaN,0,0.594796923354806,0.587803100000201
SX101,prp,0,10,32,letter_15,false_font_12,non-target,letter,left,letter_03,0.5,1.1,0.232,0.732,offset,1100,33,6364.93849895299,NaN,0,cr,1,6365.6705792,1100,1,6366.0284,1100,0,6365.43848454715,6366.93844819416,6368.0303553,NaN,NaN,0,NaN,0.357820799999899
SX101,prp,0,10,33,letter_15,false_font_12,non-target,false_font,center,false_font_19,1,1.38333333333333,0,0,onset,1100,149,6368.03840633548,NaN,0,cr,1,6368.0394104,1100,1,6368.6173744,1100,0,6369.03839908832,6370.03837852949,6371.4135786,NaN,NaN,0,NaN,0.577964000000065
SX101,prp,0,10,34,letter_15,false_font_12,irrelevant,object,center,object_06,1,1.61666666666667,0.232,0.232,onset,1100,196,6371.42167087664,NaN,0,cr,1,6371.6537758,1100,1,6372.1337158,1100,0,6372.42165072949,6373.42161848248,6375.0301148,NaN,NaN,0,NaN,0.47993999999926
SX101,prp,0,10,35,letter_15,false_font_12,irrelevant,object,center,object_10,1,0.85,0.232,1.232,offset,1000,200,6375.03826651183,NaN,0,cr,2,6376.2703473,1000,1,6376.7703215,1000,0,6376.03820627694,6377.03820085898,6377.8799554,NaN,NaN,0,NaN,0.499974199999997
SX101,prp,0,10,36,letter_15,false_font_12,irrelevant,object,center,object_12,1.5,1.5,0.466,1.966,offset,1100,202,6377.88818578832,NaN,0,cr,1,6379.8542289,1100,1,6380.2356329,1100,0,6379.38814857665,6379.88813871781,6381.3798962,NaN,NaN,0,NaN,0.381404000000657
SX101,prp,0,10,37,letter_15,false_font_12,non-target,letter,center,letter_07,1,1.1,0.232,1.232,offset,1100,17,6381.38811180015,NaN,0,cr,1,6382.6202172,1100,1,6383.3293704,1100,0,6382.38812236482,6383.38805960015,6384.4799906,NaN,NaN,0,NaN,0.709153199999491
SX101,prp,0,11,1,face_05,object_06,non-target,face,center,face_04,1,1.11666666666667,0,0,onset,1000,74,6401.20430072964,NaN,0,cr,2,6401.2054438,1000,1,6402.5378672,1000,0,6402.20430336482,6403.20426194715,6404.3126941,NaN,NaN,6395.48777367664,NaN,1.33242340000015
SX101,prp,0,11,2,face_05,object_06,non-target,face,center,face_07,1.5,1.11666666666667,0.116,1.616,offset,1100,77,6404.32090693548,NaN,0,cr,1,6405.9370591,1100,1,6406.4175386,1100,0,6405.82086592964,6406.32086151197,6407.4292661,NaN,NaN,0,NaN,0.480479500000001
SX101,prp,0,11,3,face_05,object_06,target,face,left,face_05,0.5,1.9,0.116,0.116,onset,1000,95,6407.43750544715,6408.0272087,1,hit,2,6407.5536701,1000,1,6408.5483361,1,1000,6407.93748361197,6409.43744924132,6411.3291819,NaN,NaN,0,0.589703252845538,0.994665999999597
SX101,prp,0,11,4,face_05,object_06,irrelevant,letter,center,letter_10,0.5,0.716666666666667,0,0.5,offset,1100,20,6411.33740452964,NaN,0,cr,1,6411.8384927,1100,1,6412.4428622,1100,0,6411.83739214132,6413.33736825299,6414.0457954,NaN,NaN,0,NaN,0.604369499999848
SX101,prp,0,11,5,face_05,object_06,irrelevant,false_font,left,false_font_07,0.5,0.766666666666667,0.466,0.966,offset,1100,157,6414.05401577664,NaN,0,cr,1,6415.0200665,1100,1,6415.7853052,1100,0,6414.55399091197,6416.05402219416,6416.8125771,NaN,NaN,0,NaN,0.765238699999827
SX101,prp,0,11,6,face_05,object_06,target,face,left,face_05,0.5,0.983333333333333,0.466,0.966,offset,1100,95,6416.82066615299,6417.6817531,1,hit,1,6417.7867677,1100,1,6418.2905138,1,1100,6417.32061017066,6418.82056762964,6419.7956875,NaN,NaN,0,0.861086947006697,0.503746099999262
SX101,prp,0,11,7,face_05,object_06,non-target,face,right,face_12,1.5,1.8,0.232,1.732,offset,1100,122,6419.80388315898,NaN,0,cr,1,6421.5362355,1100,1,6422.0183661,1100,0,6421.30383814132,6421.80384140599,6423.595773,NaN,NaN,0,NaN,0.482130600000346
SX101,prp,0,11,8,face_05,object_06,irrelevant,letter,right,letter_03,0.5,1.08333333333333,0.466,0.466,onset,1100,53,6423.60380118832,NaN,0,cr,1,6424.0699896,1100,1,6424.5277815,1100,0,6424.10378294716,6425.60375115299,6426.6789785,NaN,NaN,0,NaN,0.457791900000302
SX101,prp,0,11,9,face_05,object_06,irrelevant,false_font,left,false_font_16,0.5,0.75,0,0.5,offset,1100,166,6426.68701728877,NaN,0,cr,1,6427.1881679,1100,1,6427.6256157,1100,0,6427.18703432365,6428.68700642949,6429.4287046,NaN,NaN,0,NaN,0.437447799999973
SX101,prp,0,11,10,face_05,object_06,irrelevant,false_font,center,false_font_09,1.5,0.916666666666667,0.466,0.466,onset,1100,139,6429.43696903577,NaN,0,cr,1,6429.9030601,1100,1,6430.2372394,1100,0,6430.93694173548,6431.43693871781,6432.3453122,NaN,NaN,0,NaN,0.33417929999996
SX101,prp,0,11,11,face_05,object_06,irrelevant,letter,center,letter_05,1,1.45,0.466,1.466,offset,1100,15,6432.35358376482,NaN,0,cr,1,6433.8196741,1100,1,6434.2354133,1100,0,6433.35355493548,6434.35353633548,6435.7953137,NaN,NaN,0,NaN,0.415739199999734
SX101,prp,0,11,12,face_05,object_06,irrelevant,letter,left,letter_09,1,1.86666666666667,0,1,offset,1100,39,6435.80351296482,NaN,0,cr,1,6436.8044627,1100,1,6437.2695824,1100,0,6436.80348188832,6437.80346407066,6439.6619782,NaN,NaN,0,NaN,0.465119700000287
SX101,prp,0,11,13,face_05,object_06,non-target,face,right,face_12,0.5,1.71666666666667,0.232,0.732,offset,1100,122,6439.67008918832,NaN,0,cr,1,6440.4022502,1100,1,6440.7678267,1100,0,6440.17007394716,6441.67003705299,6443.3785546,NaN,NaN,0,NaN,0.365576500000316
SX101,prp,0,11,14,face_05,object_06,non-target,face,center,face_06,0.5,1.45,0.466,0.966,offset,1000,76,6443.38667301183,NaN,0,cr,2,6444.3528662,1000,1,6445.041755,1000,0,6443.88665574715,6445.38660705898,6446.8285124,NaN,NaN,0,NaN,0.688888800000313
SX101,prp,0,11,15,face_05,object_06,non-target,face,center,face_10,1.5,1.26666666666667,0.466,0.466,onset,1100,80,6446.83657970015,NaN,0,cr,1,6447.3026494,1100,1,6447.7036042,1100,0,6448.33656078832,6448.83655417066,6450.094971,NaN,NaN,0,NaN,0.400954800000363
SX101,prp,0,11,16,face_05,object_06,non-target,face,right,face_02,0.5,1.61666666666667,0.466,0.966,offset,1100,112,6450.10320502964,NaN,0,cr,1,6451.0692847,1100,1,6451.6585625,1100,0,6450.60315641197,6452.10313000599,6453.7116804,NaN,NaN,0,NaN,0.589277799999763
SX101,prp,0,11,17,face_05,object_06,non-target,face,center,face_02,1.5,1,0.232,0.232,onset,1100,72,6453.71976209416,NaN,0,cr,1,6453.9519679,1000,0,6454.4244973,1000,0,6455.21971773548,6455.71970822949,6456.7116354,NaN,NaN,0,NaN,0.472529399999985
SX101,prp,0,11,18,face_05,object_06,non-target,object,center,object_01,1.5,0.716666666666667,0,1.5,offset,1000,191,6456.71972390015,NaN,0,cr,2,6458.220838,1100,0,6458.9835917,1100,0,6458.21963881197,6458.71964537066,6459.4281684,NaN,NaN,0,NaN,0.762753699999848
SX101,prp,0,11,19,face_05,object_06,irrelevant,letter,right,letter_13,1,1.56666666666667,0.466,1.466,offset,1000,63,6459.43627997664,NaN,0,cr,2,6460.9023336,1000,1,6461.3555126,1000,0,6460.43626598832,6461.43623264132,6462.9946468,NaN,NaN,0,NaN,0.453179000000091
SX101,prp,0,11,20,face_05,object_06,irrelevant,letter,right,letter_06,1,1.56666666666667,0.232,0.232,onset,1100,56,6463.00287742949,NaN,0,cr,1,6463.235037,1100,1,6463.7208745,1100,0,6464.00284863548,6465.00282245898,6466.5612442,NaN,NaN,0,NaN,0.485837499999434
