sub_id,task,is_practice,block,trial,target_01,target_02,task_relevance,category,orientation,identity,duration,stim_jit,SOA,onset_SOA,SOA_lock,pitch,texture,vis_stim_time,time_of_resp_vis,has_repsonse_vis,trial_repsonse_vis,aud_stim_buff,aud_stim_time,aud_resp,trial_accuracy_aud,time_of_resp_aud,trial_first_button_press,trial_second_button_press,fix_time,JitOnset,trial_end,wrong_key,wrong_key_timestemp,TargetScreenOnset,RT_vis,RT_aud
SX103,prp,0,1,1,letter_07,false_font_16,non-target,false_font,center,false_font_03,1,1.96527777777778,0.116,1.116,offset,1100,133,1622.59482749316,NaN,0,cr,1,1623.7116804,1100,1,1624.4310485,1100,0,1623.60174844914,1624.60171489763,1626.5568583,NaN,NaN,1615.50475733718,NaN,0.719368100000111
SX103,prp,0,1,2,letter_07,false_font_16,non-target,letter,right,letter_08,1.5,1.60416666666667,0.466,1.966,offset,1000,58,1626.5669411678,NaN,0,cr,2,1628.5333065,1000,1,1629.0066038,1000,0,1628.07383895807,1628.57382827673,1630.1676862,NaN,NaN,0,NaN,0.473297300000013
SX103,prp,0,1,3,letter_07,false_font_16,non-target,false_font,center,false_font_09,0.5,0.791666666666667,0.116,0.116,onset,1100,139,1630.17794539539,NaN,0,cr,1,1630.2941783,1100,1,1631.0948407,1100,0,1630.68487813495,1632.18483413718,1632.966284,NaN,NaN,0,NaN,0.800662399999965
SX103,prp,0,1,4,letter_07,false_font_16,irrelevant,object,center,object_17,0.5,0.916666666666667,0,0.5,offset,1100,207,1632.97647941852,NaN,0,cr,1,1633.4845044,1100,1,1633.9270832,1100,0,1633.48341195807,1634.98336989763,1635.8898926,NaN,NaN,0,NaN,0.442578799999865
SX103,prp,0,1,5,letter_07,false_font_16,non-target,letter,center,letter_15,1,0.777777777777778,0.232,1.232,offset,1100,25,1635.90000537897,NaN,0,cr,1,1637.1320796,1100,1,1637.7346342,1100,0,1636.90692467897,1637.90689639763,1638.6743943,NaN,NaN,0,NaN,0.602554600000076
SX103,prp,0,1,6,letter_07,false_font_16,non-target,letter,center,letter_17,1,0.888888888888889,0.116,1.116,offset,1000,27,1638.68465261629,NaN,0,cr,2,1639.8008802,1000,1,1640.2786236,1000,0,1639.69156469986,1640.69154253718,1641.5702613,NaN,NaN,0,NaN,0.477743400000008
SX103,prp,0,1,7,letter_07,false_font_16,non-target,letter,center,letter_02,1.5,1.3125,0,0,onset,1000,12,1641.58040059986,NaN,0,cr,2,1641.5814911,1000,1,1642.1432861,1000,0,1643.08730453718,1643.58728827897,1644.8895989,NaN,NaN,0,NaN,0.561795000000075
SX103,prp,0,1,8,letter_07,false_font_16,non-target,letter,left,letter_19,0.5,1.22222222222222,0,0.5,offset,1000,49,1644.89975473718,NaN,0,cr,2,1645.407797,1000,1,1645.9426331,1000,0,1645.40668551852,1646.90664299763,1648.1186142,NaN,NaN,0,NaN,0.534836099999893
SX103,prp,0,1,9,letter_07,false_font_16,irrelevant,face,left,face_17,1.5,0.861111111111111,0.116,0.116,onset,1000,107,1648.12883091852,NaN,0,cr,2,1648.2448803,1000,1,1648.7671334,1000,0,1649.63573027897,1650.13571533718,1650.9865309,NaN,NaN,0,NaN,0.522253099999944
SX103,prp,0,1,10,letter_07,false_font_16,non-target,letter,center,letter_04,1.5,1.42361111111111,0.466,0.466,onset,1100,14,1650.99680231852,NaN,0,cr,1,1651.4630561,1100,1,1651.9831918,1100,0,1652.50370539539,1653.00369111852,1654.4171209,NaN,NaN,0,NaN,0.520135700000083
SX103,prp,0,1,11,letter_07,false_font_16,non-target,false_font,center,false_font_13,1.5,1.40972222222222,0.232,1.732,offset,1100,143,1654.42726609763,1654.9666424,1,fa,1,1656.1593329,1100,1,1656.8470801,1,1100,1655.93416767897,1656.43414961629,1657.8335863,NaN,NaN,0,0.539376302374421,0.687747200000103
SX103,prp,0,1,12,letter_07,false_font_16,irrelevant,face,right,face_19,0.5,1.63194444444444,0,0.5,offset,1000,129,1657.84383539763,NaN,0,cr,2,1658.3518312,1000,1,1659.1506407,1000,0,1658.35076139539,1659.85072159539,1661.4724292,NaN,NaN,0,NaN,0.798809499999834
SX103,prp,0,1,13,letter_07,false_font_16,irrelevant,object,left,object_20,1.5,1.19444444444444,0,1.5,offset,1100,230,1661.48261757673,NaN,0,cr,1,1662.9906779,1100,1,1663.407123,1100,0,1662.98953593718,1663.48950603718,1664.6737022,NaN,NaN,0,NaN,0.416445099999919
SX103,prp,0,1,14,letter_07,false_font_16,irrelevant,face,left,face_02,1.5,1.73611111111111,0,1.5,offset,1000,92,1664.68391663941,NaN,0,cr,2,1666.1919364,1000,1,1666.6386574,1000,0,1666.19081801852,1666.69080919763,1668.416579,NaN,NaN,0,NaN,0.446721000000025
SX103,prp,0,1,15,letter_07,false_font_16,non-target,false_font,center,false_font_04,1.5,0.868055555555555,0,0,onset,1000,134,1668.42686661405,NaN,0,cr,2,1668.4278354,1000,1,1668.9911695,1000,0,1669.93377013718,1670.43375845807,1671.2915318,NaN,NaN,0,NaN,0.56333410000002
SX103,prp,0,1,16,letter_07,false_font_16,irrelevant,object,left,object_09,0.5,1.92361111111111,0.466,0.966,offset,1100,219,1671.30178735807,NaN,0,cr,1,1672.2678879,1100,1,1672.7506644,1100,0,1671.80871983718,1673.30867193718,1675.2221471,NaN,NaN,0,NaN,0.4827765
SX103,prp,0,1,17,letter_07,false_font_16,non-target,letter,right,letter_16,1.5,0.875,0.232,1.732,offset,1000,66,1675.23223341852,NaN,0,cr,2,1676.9643438,1000,1,1677.3906809,1000,0,1676.73913201852,1677.23911919763,1678.1039473,NaN,NaN,0,NaN,0.426337099999955
SX103,prp,0,1,21,letter_07,false_font_16,irrelevant,face,left,face_09,1,1.625,0.466,1.466,offset,1000,99,1688.29436497897,NaN,0,cr,2,1689.7604257,1000,1,1690.0466804,1000,0,1689.30128250958,1690.30125137673,1691.9159018,NaN,NaN,0,NaN,0.286254699999972
SX103,prp,0,1,22,letter_07,false_font_16,non-target,false_font,right,false_font_19,1,0.902777777777778,0.232,0.232,onset,1000,189,1691.92620919539,NaN,0,cr,2,1692.1583909,1000,1,1692.8232881,1000,0,1692.93312303941,1693.93309123495,1694.8255871,NaN,NaN,0,NaN,0.664897199999814
SX103,prp,0,1,23,letter_07,false_font_16,irrelevant,face,left,face_06,0.5,1.00694444444444,0.116,0.616,offset,1100,96,1694.83584303718,NaN,0,cr,1,1695.4519333,1100,1,1695.9107147,1100,0,1695.34277321852,1696.84273081852,1697.8393701,NaN,NaN,0,NaN,0.458781399999907
SX103,prp,0,1,25,letter_07,false_font_16,irrelevant,object,right,object_03,1.5,1.95833333333333,0.232,0.232,onset,1100,233,1700.91206727227,1701.535229,1,fa,1,1701.1443028,1100,1,1702.9589695,1,1100,1702.41896299763,1702.91894901852,1704.8669392,NaN,NaN,0,0.623161727734896,1.81466669999986
SX103,prp,0,1,27,letter_07,false_font_16,irrelevant,object,center,object_06,0.5,0.854166666666667,0.232,0.232,onset,1100,196,1707.63409677673,NaN,0,cr,1,1707.8663523,1100,1,1708.4306771,1100,0,1708.14102566477,1709.64098333718,1710.4849255,NaN,NaN,0,NaN,0.564324799999895
SX103,prp,0,1,28,letter_07,false_font_16,irrelevant,face,left,face_19,1,1.42361111111111,0.466,1.466,offset,1100,109,1710.49512681629,NaN,0,cr,1,1711.9613003,1100,1,1712.5350705,1100,0,1711.50204239763,1712.50201291852,1713.9153472,NaN,NaN,0,NaN,0.573770200000126
SX103,prp,0,1,29,letter_07,false_font_16,non-target,false_font,center,false_font_19,1,0.888888888888889,0.116,1.116,offset,1100,149,1713.92558503718,NaN,0,cr,1,1715.0417483,1100,1,1715.43109,1100,0,1714.93251979763,1715.93247889093,1716.8111461,NaN,NaN,0,NaN,0.389341699999932
SX103,prp,0,1,30,letter_07,false_font_16,non-target,false_font,center,false_font_05,1,1.34027777777778,0.116,0.116,onset,1100,135,1716.82133951852,NaN,0,cr,1,1716.9373832,1100,1,1717.4472503,1100,0,1717.82825694914,1718.82823011629,1720.1583339,NaN,NaN,0,NaN,0.509867099999838
SX103,prp,0,1,31,letter_07,false_font_16,irrelevant,face,center,face_14,0.5,1.36111111111111,0.232,0.232,onset,1000,84,1720.16846719763,NaN,0,cr,2,1720.400613,1000,1,1720.8792107,1000,0,1720.6753996745,1722.17535323718,1723.5261305,NaN,NaN,0,NaN,0.478597699999909
SX103,prp,0,1,32,letter_07,false_font_16,irrelevant,face,right,face_06,1.5,1.04861111111111,0.116,0.116,onset,1000,116,1723.53643155807,NaN,0,cr,2,1723.6526736,1000,1,1724.1432413,1000,0,1725.04332881852,1725.54331391852,1726.5815917,NaN,NaN,0,NaN,0.490567699999929
SX103,prp,0,1,33,letter_07,false_font_16,non-target,letter,left,letter_06,0.5,0.75,0.116,0.616,offset,1000,36,1726.59189787897,NaN,0,cr,2,1727.2081217,1000,1,1727.8391609,1000,0,1727.09882715807,1728.59878695807,1729.3384797,NaN,NaN,0,NaN,0.631039200000032
SX103,prp,0,1,34,letter_07,false_font_16,irrelevant,object,left,object_09,1.5,1.73611111111111,0.232,1.732,offset,1100,219,1729.34876597673,NaN,0,cr,1,1731.0809564,1100,1,1731.5832105,1100,0,1730.85571999763,1731.35565617673,1733.0814634,NaN,NaN,0,NaN,0.502254099999845
SX103,prp,0,1,35,letter_07,false_font_16,irrelevant,object,right,object_05,0.5,1.95138888888889,0.232,0.732,offset,1000,235,1733.09171433718,NaN,0,cr,2,1733.8239168,1000,1,1734.2547312,1000,0,1733.59864661852,1735.09860319763,1737.0398369,NaN,NaN,0,NaN,0.430814399999917
SX103,prp,0,1,36,letter_07,false_font_16,irrelevant,object,center,object_20,1,1.53472222222222,0.232,0.232,onset,1100,210,1737.04998871629,NaN,0,cr,1,1737.282098,1100,1,1737.7832497,1100,0,1738.05686094914,1739.05683019763,1740.5814321,NaN,NaN,0,NaN,0.501151700000037
SX103,prp,0,1,37,letter_07,false_font_16,non-target,letter,center,letter_20,1,0.729166666666667,0.116,1.116,offset,1100,30,1740.59150951852,NaN,0,cr,1,1741.7077408,1100,1,1742.0794909,1100,0,1741.59842355807,1742.59839441405,1743.3172772,NaN,NaN,0,NaN,0.371750100000099
SX103,prp,0,2,1,letter_16,false_font_04,irrelevant,object,left,object_10,1.5,1.625,0.116,1.616,offset,1100,220,1753.20920829986,NaN,0,cr,1,1754.8254197,1100,1,1755.5667965,1100,0,1754.71611273941,1755.21609663718,1756.8308724,NaN,NaN,1746.09135778646,NaN,0.741376799999898
SX103,prp,0,2,2,letter_16,false_font_04,irrelevant,face,center,face_02,1.5,0.826388888888889,0.466,0.466,onset,1100,72,1756.84105601852,NaN,0,cr,1,1757.3071464,1100,1,1757.7027978,1100,0,1758.34795591852,1758.84794133941,1759.664128,NaN,NaN,0,NaN,0.395651400000133
SX103,prp,0,2,3,letter_16,false_font_04,irrelevant,object,center,object_13,0.5,0.8125,0.116,0.616,offset,1100,203,1759.67430991852,NaN,0,cr,1,1760.2903913,1100,1,1760.6788116,1100,0,1760.18124117897,1761.68119527897,1762.4834505,NaN,NaN,0,NaN,0.388420300000007
SX103,prp,0,2,5,letter_16,false_font_04,non-target,letter,left,letter_04,0.5,1.04861111111111,0.116,0.616,offset,1100,34,1765.51442564914,NaN,0,cr,1,1766.1306806,1100,1,1766.5351617,1100,0,1766.02135553718,1767.52131180209,1768.5597097,NaN,NaN,0,NaN,0.404481099999884
SX103,prp,0,2,6,letter_16,false_font_04,irrelevant,object,center,object_10,0.5,0.770833333333333,0,0,onset,1100,200,1768.56989573718,NaN,0,cr,1,1768.5709122,1100,1,1768.9992536,1100,0,1769.07682321852,1770.57678156477,1771.3374655,NaN,NaN,0,NaN,0.428341399999908
SX103,prp,0,2,7,letter_16,false_font_04,irrelevant,object,center,object_16,1.5,0.895833333333333,0,1.5,offset,1100,206,1771.3475921812,NaN,0,cr,1,1772.8556286,1100,1,1773.287302,1100,0,1772.85449307897,1773.35447975807,1774.2399914,NaN,NaN,0,NaN,0.431673399999909
SX103,prp,0,2,8,letter_16,false_font_04,non-target,letter,right,letter_12,1.5,1.71527777777778,0.466,1.966,offset,1100,62,1774.25029209539,NaN,0,cr,1,1776.2164001,1100,1,1776.5993002,1100,0,1775.75719049539,1776.25717711405,1777.9621079,NaN,NaN,0,NaN,0.382900099999915
SX103,prp,0,2,9,letter_16,false_font_04,non-target,letter,right,letter_01,0.5,1.76388888888889,0,0,onset,1100,51,1777.97240673941,NaN,0,cr,1,1777.9734548,1100,1,1778.519362,1100,0,1778.4793372812,1779.97929540433,1781.7329127,NaN,NaN,0,NaN,0.545907200000102
SX103,prp,0,2,10,letter_16,false_font_04,non-target,letter,center,letter_13,1,1.38194444444444,0.116,0.116,onset,1100,23,1781.74313219539,NaN,0,cr,1,1781.8593274,1100,1,1782.23939,1100,0,1782.75005287003,1783.75002137897,1785.1217137,NaN,NaN,0,NaN,0.380062599999974
SX103,prp,0,2,12,letter_16,false_font_04,irrelevant,face,center,face_07,0.5,1.70138888888889,0.466,0.466,onset,1000,77,1788.14573203271,NaN,0,cr,2,1788.6119474,1000,1,1789.1508657,1000,0,1788.65266330209,1790.15261987897,1791.8438231,NaN,NaN,0,NaN,0.538918299999978
SX103,prp,0,2,13,letter_16,false_font_04,non-target,letter,right,letter_15,1.5,0.833333333333333,0.466,0.466,onset,1000,65,1791.85395971852,NaN,0,cr,2,1792.3201809,1000,1,1792.9834648,1000,0,1793.36086114165,1793.86084781852,1794.6838818,NaN,NaN,0,NaN,0.663283900000124
SX103,prp,0,2,14,letter_16,false_font_04,irrelevant,object,left,object_04,1,1.19444444444444,0,1,offset,1100,214,1794.69416035807,NaN,0,cr,1,1795.7020632,1100,1,1796.0948436,1100,0,1795.7010765469,1796.70104849763,1797.8852752,NaN,NaN,0,NaN,0.392780399999992
SX103,prp,0,2,15,letter_16,false_font_04,irrelevant,face,right,face_20,0.5,1.09722222222222,0.466,0.966,offset,1000,130,1797.89545759986,NaN,0,cr,2,1798.8616711,1000,1,1799.2868441,1000,0,1798.40239029763,1799.90234684165,1800.9892947,NaN,NaN,0,NaN,0.425173000000086
SX103,prp,0,2,16,letter_16,false_font_04,non-target,false_font,center,false_font_19,1.5,1.42361111111111,0.116,0.116,onset,1000,149,1800.99953863495,NaN,0,cr,2,1801.1156072,1000,1,1801.6953198,1000,0,1802.50643803718,1803.00642395807,1804.4197025,NaN,NaN,0,NaN,0.579712599999993
SX103,prp,0,2,17,letter_16,false_font_04,non-target,false_font,center,false_font_03,1,0.743055555555555,0.232,0.232,onset,1100,133,1804.42999767897,NaN,0,cr,1,1804.6622216,1100,1,1805.4473307,1100,0,1805.4369621678,1806.43688579986,1807.1696512,NaN,NaN,0,NaN,0.7851091
SX103,prp,0,2,18,letter_16,false_font_04,irrelevant,face,right,face_11,1,0.993055555555555,0.116,1.116,offset,1000,121,1807.17992251852,NaN,0,cr,2,1808.2959646,1000,1,1808.7672414,1000,0,1808.18683589763,1809.18680703941,1810.1696642,NaN,NaN,0,NaN,0.471276800000169
SX103,prp,0,2,19,letter_16,false_font_04,non-target,letter,center,letter_08,0.5,0.847222222222222,0.232,0.732,offset,1100,18,1810.17983755807,NaN,0,cr,1,1810.9118796,1100,1,1811.295312,1100,0,1810.68676561852,1812.18672472075,1813.0235991,NaN,NaN,0,NaN,0.383432399999947
SX103,prp,0,2,20,letter_16,false_font_04,irrelevant,object,center,object_08,1,1.30555555555556,0.232,1.232,offset,1000,198,1813.03392115807,NaN,0,cr,2,1814.2660547,1000,1,1814.5912363,1000,0,1814.04083725807,1815.04081205807,1816.3361042,NaN,NaN,0,NaN,0.325181599999951
SX103,prp,0,2,21,letter_16,false_font_04,irrelevant,object,right,object_10,1,1.32638888888889,0.232,1.232,offset,1000,240,1816.34632669763,NaN,0,cr,2,1817.5785066,1000,1,1818.0397204,1000,0,1817.35324410735,1818.35321510958,1819.6693302,NaN,NaN,0,NaN,0.461213799999996
SX103,prp,0,2,22,letter_16,false_font_04,irrelevant,face,center,face_05,0.5,1.72222222222222,0.466,0.466,onset,1100,75,1819.67956615584,NaN,0,cr,1,1820.145784,1100,1,1820.5432126,1100,0,1820.18649585584,1821.68645299763,1823.3984846,NaN,NaN,0,NaN,0.397428600000012
SX103,prp,0,2,23,letter_16,false_font_04,irrelevant,object,left,object_19,0.5,1.97916666666667,0.466,0.466,onset,1000,229,1823.40862651852,NaN,0,cr,2,1823.8748602,1000,1,1824.4308346,1000,0,1823.91556320958,1825.41552288646,1827.3844795,NaN,NaN,0,NaN,0.555974399999968
SX103,prp,0,2,24,letter_16,false_font_04,non-target,letter,center,letter_02,0.5,1.22222222222222,0.116,0.116,onset,1000,12,1827.39462985807,NaN,0,cr,2,1827.5107688,1000,1,1828.0228556,1000,0,1827.90155539763,1829.40151251852,1830.6134167,NaN,NaN,0,NaN,0.512086799999906
SX103,prp,0,2,25,letter_16,false_font_04,non-target,letter,left,letter_13,1.5,1.28472222222222,0.116,1.616,offset,1100,43,1830.62370293718,NaN,0,cr,1,1832.2398958,1100,1,1832.8555844,1100,0,1832.13060373718,1832.63059005807,1833.9051614,NaN,NaN,0,NaN,0.615688599999885
SX103,prp,0,2,26,letter_16,false_font_04,irrelevant,face,center,face_07,0.5,1.00694444444444,0.232,0.232,onset,1000,77,1833.91527469986,NaN,0,cr,2,1834.1474629,1000,1,1834.6714307,1000,0,1834.42220905807,1835.92216807673,1836.9189461,NaN,NaN,0,NaN,0.523967800000037
SX103,prp,0,2,27,letter_16,false_font_04,non-target,false_font,center,false_font_19,1,0.965277777777778,0.116,0.116,onset,1000,149,1836.92908118869,NaN,0,cr,2,1837.0452679,1000,1,1837.6153221,1000,0,1837.93600150735,1838.93596824914,1839.8909211,NaN,NaN,0,NaN,0.570054199999959
SX103,prp,0,2,28,letter_16,false_font_04,irrelevant,object,center,object_04,0.5,0.840277777777778,0.232,0.232,onset,1000,194,1839.90122065807,NaN,0,cr,2,1840.1334014,1000,1,1840.5269103,1000,0,1840.40814917897,1841.90810603495,1842.7381901,NaN,NaN,0,NaN,0.393508900000143
SX103,prp,0,2,29,letter_16,false_font_04,non-target,false_font,center,false_font_14,1,1.75,0.466,1.466,offset,1000,144,1842.74836205807,NaN,0,cr,2,1844.2145276,1000,1,1844.6869132,1000,0,1843.75527733718,1844.75524649763,1846.4949976,NaN,NaN,0,NaN,0.472385599999825
SX103,prp,0,2,30,letter_16,false_font_04,irrelevant,face,center,face_07,1,0.986111111111111,0,1,offset,1100,77,1846.50519713941,NaN,0,cr,1,1847.5131,1100,1,1847.9195582,1100,0,1847.51211704914,1848.51208551852,1849.4880294,NaN,NaN,0,NaN,0.406458200000088
SX103,prp,0,2,31,letter_16,false_font_04,non-target,letter,left,letter_20,0.5,0.944444444444444,0.232,0.232,onset,1000,50,1849.49816945807,NaN,0,cr,2,1849.7303915,1000,1,1850.0634555,1000,0,1850.00510323718,1851.50505651852,1852.4393334,NaN,NaN,0,NaN,0.333063999999922
SX103,prp,0,2,32,letter_16,false_font_04,non-target,false_font,right,false_font_10,0.5,1.25694444444444,0.232,0.732,offset,1000,180,1852.44947678869,NaN,0,cr,2,1853.1817308,1000,1,1853.6073098,1000,0,1852.95640893718,1854.45636535807,1855.7030718,NaN,NaN,0,NaN,0.425578999999971
SX103,prp,0,2,33,letter_16,false_font_04,non-target,letter,right,letter_13,0.5,1.54166666666667,0.466,0.466,onset,1000,63,1855.7133239745,NaN,0,cr,2,1856.1794488,1000,1,1856.5755318,1000,0,1856.22020259763,1857.72016361852,1859.2517163,NaN,NaN,0,NaN,0.396082999999862
SX103,prp,0,2,34,letter_16,false_font_04,non-target,false_font,left,false_font_01,0.5,1.15972222222222,0.232,0.732,offset,1000,151,1859.26180027673,NaN,0,cr,2,1859.9939839,1000,1,1860.3348983,1000,0,1859.76871613495,1861.26867113718,1862.418234,NaN,NaN,0,NaN,0.340914399999974
SX103,prp,0,3,1,face_18,object_12,irrelevant,letter,right,letter_18,1.5,0.986111111111111,0.466,1.966,offset,1000,68,1873.79609582299,NaN,0,cr,2,1875.7622889,1000,1,1876.6153735,1000,0,1875.30299821629,1875.80298683718,1876.7788258,NaN,NaN,1867.08795952378,NaN,0.853084600000102
SX103,prp,0,3,2,face_18,object_12,non-target,object,center,object_18,0.5,1.89583333333333,0.232,0.732,offset,1100,208,1876.78906835807,NaN,0,cr,1,1877.5211479,1100,1,1878.1353735,1100,0,1877.29600001852,1878.7959560745,1880.6816066,NaN,NaN,0,NaN,0.614225600000054
SX103,prp,0,3,3,face_18,object_12,irrelevant,letter,center,letter_13,0.5,1.88194444444444,0.232,0.232,onset,1100,23,1880.69173695807,NaN,0,cr,1,1880.9239251,1100,1,1881.415265,1100,0,1881.19866327897,1882.69862149763,1884.5702551,NaN,NaN,0,NaN,0.491339900000185
SX103,prp,0,3,4,face_18,object_12,irrelevant,letter,left,letter_14,0.5,1.31944444444444,0.232,0.232,onset,1100,44,1884.58051553941,NaN,0,cr,1,1884.8126231,1100,1,1885.3354886,1100,0,1885.08744401852,1886.58740189763,1887.8965752,NaN,NaN,0,NaN,0.522865499999853
SX103,prp,0,3,5,face_18,object_12,irrelevant,letter,right,letter_10,1,0.791666666666667,0.116,0.116,onset,1000,60,1887.90681053718,NaN,0,cr,2,1888.0230381,1000,1,1888.5353767,1000,0,1888.91372569539,1889.91370084914,1890.6950911,NaN,NaN,0,NaN,0.512338600000021
SX103,prp,0,3,6,face_18,object_12,non-target,face,right,face_17,0.5,0.798611111111111,0,0,onset,1000,127,1890.70534409763,NaN,0,cr,2,1890.7063606,1000,1,1892.726941,1000,0,1891.21226959763,1892.71223247897,1893.5005971,NaN,NaN,0,NaN,2.02058039999997
SX103,prp,0,3,7,face_18,object_12,non-target,face,center,face_11,0.5,1.83333333333333,0.116,0.116,onset,1100,81,1893.51081989763,NaN,0,cr,1,1893.6270448,1100,1,1895.070972,1100,0,1894.01774939763,1895.51770989539,1897.3408872,NaN,NaN,0,NaN,1.44392719999996
SX103,prp,0,3,8,face_18,object_12,irrelevant,false_font,center,false_font_07,1,1.91666666666667,0,0,onset,1000,137,1897.35099001629,NaN,0,cr,2,1897.351996,1000,1,1897.9272825,1000,0,1898.35790683048,1899.35787901852,1901.2642308,NaN,NaN,0,NaN,0.575286499999947
SX103,prp,0,3,9,face_18,object_12,irrelevant,false_font,left,false_font_10,1.5,1.25694444444444,0.116,0.116,onset,1100,160,1901.27448797673,NaN,0,cr,1,1901.3907271,1100,1,1901.7755142,1100,0,1902.78138997897,1903.28137467897,1904.5279973,NaN,NaN,0,NaN,0.38478710000004
SX103,prp,0,3,10,face_18,object_12,non-target,object,right,object_11,1,0.722222222222222,0.466,0.466,onset,1100,241,1904.53828499539,NaN,0,cr,1,1905.0044765,1100,1,1905.4715869,1100,0,1905.54520490958,1906.54517748869,1907.2571235,NaN,NaN,0,NaN,0.46711039999991
SX103,prp,0,3,11,face_18,object_12,non-target,object,center,object_05,1,1.13888888888889,0.116,0.116,onset,1000,195,1907.26737537897,NaN,0,cr,2,1907.3834397,1000,1,1907.8789757,1000,0,1908.27429438869,1909.27426849763,1910.4029539,NaN,NaN,0,NaN,0.495535999999902
SX103,prp,0,3,13,face_18,object_12,irrelevant,letter,center,letter_02,0.5,0.777777777777778,0.466,0.466,onset,1000,12,1913.60053349763,NaN,0,cr,2,1914.066679,1000,1,1914.3435194,1000,0,1914.10746050209,1915.60742261852,1916.3749885,NaN,NaN,0,NaN,0.276840400000083
SX103,prp,0,3,14,face_18,object_12,non-target,face,left,face_13,0.5,1.11805555555556,0.232,0.232,onset,1100,103,1916.38518057673,NaN,0,cr,1,1916.6173217,1100,1,1917.1514397,1100,0,1916.89210561852,1918.39206573718,1919.4998354,NaN,NaN,0,NaN,0.534118000000035
SX103,prp,0,3,16,face_18,object_12,irrelevant,false_font,center,false_font_12,1.5,1.40277777777778,0.116,1.616,offset,1000,142,1922.24612683718,NaN,0,cr,2,1923.8622231,1000,1,1924.5189796,1000,0,1923.75302801629,1924.25301313718,1925.6454947,NaN,NaN,0,NaN,0.656756500000029
SX103,prp,0,3,17,face_18,object_12,non-target,object,center,object_15,1.5,0.826388888888889,0.466,1.966,offset,1100,205,1925.65575393495,NaN,0,cr,1,1927.6219811,1100,1,1928.3589798,1100,0,1927.16265615807,1927.66264399763,1928.4788229,NaN,NaN,0,NaN,0.736998699999958
SX103,prp,0,3,18,face_18,object_12,irrelevant,false_font,center,false_font_02,1,0.888888888888889,0.116,1.116,offset,1100,132,1928.48900599763,NaN,0,cr,1,1929.6050673,1100,1,1930.032026,1100,0,1929.49592435807,1930.49589167897,1931.3745897,NaN,NaN,0,NaN,0.426958700000114
SX103,prp,0,3,20,face_18,object_12,non-target,object,center,object_09,0.5,1.23611111111111,0.116,0.116,onset,1000,199,1934.25967667897,NaN,0,cr,2,1934.3757449,1000,1,1935.1350319,1000,0,1934.76661231852,1936.26656964165,1937.4924022,NaN,NaN,0,NaN,0.759287000000086
SX103,prp,0,3,21,face_18,object_12,irrelevant,false_font,right,false_font_17,1.5,0.743055555555555,0.116,1.616,offset,1100,187,1937.50264282075,NaN,0,cr,1,1939.1188445,1100,1,1939.7434324,1100,0,1939.00954945807,1939.50953031852,1940.2424417,NaN,NaN,0,NaN,0.624587900000051
SX103,prp,0,3,22,face_18,object_12,irrelevant,letter,center,letter_06,1.5,0.972222222222222,0.466,1.966,offset,1100,16,1940.25256539763,NaN,0,cr,1,1942.2187974,1100,1,1942.6955459,1100,0,1941.75946821852,1942.25945899763,1943.2215117,NaN,NaN,0,NaN,0.476748499999985
SX103,prp,0,3,23,face_18,object_12,irrelevant,false_font,center,false_font_15,0.5,1.77777777777778,0.116,0.116,onset,1100,145,1943.2316504745,NaN,0,cr,1,1943.3478144,1100,1,1943.8950384,1100,0,1943.73858017673,1945.23853853941,1947.0060847,NaN,NaN,0,NaN,0.547223999999915
SX103,prp,0,3,24,face_18,object_12,non-target,object,center,object_14,0.5,1.90277777777778,0.232,0.732,offset,1000,204,1947.01627029763,NaN,0,cr,2,1947.7485232,1000,1,1948.3834025,1000,0,1947.52319552299,1949.02315421852,1950.9157937,NaN,NaN,0,NaN,0.634879300000193
SX103,prp,0,3,25,face_18,object_12,irrelevant,letter,center,letter_12,1.5,0.784722222222222,0.116,1.616,offset,1000,22,1950.92588199986,NaN,0,cr,2,1952.5419369,1000,1,1953.0472634,1000,0,1952.43278249763,1952.93277139763,1953.7071731,NaN,NaN,0,NaN,0.50532649999991
SX103,prp,0,3,26,face_18,object_12,non-target,object,left,object_07,0.5,1.4375,0.232,0.732,offset,1000,217,1953.71747237673,NaN,0,cr,2,1954.449671,1000,1,1954.9912229,1000,0,1954.22440281852,1955.72436033941,1957.1516899,NaN,NaN,0,NaN,0.541551899999831
SX103,prp,0,3,27,face_18,object_12,non-target,object,right,object_08,1,1.95833333333333,0,1,offset,1100,238,1957.16181933718,NaN,0,cr,1,1958.1698468,1100,1,1958.5676826,1100,0,1958.16873449763,1959.16870899763,1961.1167295,NaN,NaN,0,NaN,0.397835799999939
SX103,prp,0,3,28,face_18,object_12,irrelevant,false_font,right,false_font_13,1.5,1.04861111111111,0.232,0.232,onset,1100,183,1961.12698737673,NaN,0,cr,1,1961.359207,1100,1,1961.7599523,1100,0,1962.63388823941,1963.13387337897,1964.1722062,NaN,NaN,0,NaN,0.400745299999926
SX103,prp,0,3,29,face_18,object_12,non-target,face,right,face_12,1.5,1.34722222222222,0.232,0.232,onset,1100,122,1964.18245501852,NaN,0,cr,1,1964.4145888,1100,1,1965.1274601,1100,0,1965.68936077897,1966.18934711852,1967.5263065,NaN,NaN,0,NaN,0.712871299999961
SX103,prp,0,3,31,face_18,object_12,non-target,face,center,face_11,1.5,1.06944444444444,0.466,0.466,onset,1000,81,1970.41145099763,NaN,0,cr,2,1970.8775071,1000,1,1971.5353866,1000,0,1971.91835691629,1972.41834323718,1973.4776214,NaN,NaN,0,NaN,0.657879500000035
SX103,prp,0,3,32,face_18,object_12,non-target,face,center,face_13,1,1.70138888888889,0.232,1.232,offset,1100,83,1973.48775752824,NaN,0,cr,1,1974.7200022,1100,1,1975.231102,1100,0,1974.49467147897,1975.49464081852,1977.1858365,NaN,NaN,0,NaN,0.511099800000011
SX103,prp,0,3,33,face_18,object_12,non-target,object,center,object_10,1.5,1.9375,0.232,0.232,onset,1100,200,1977.19598263718,NaN,0,cr,1,1977.4281698,1100,1,1977.8555663,1100,0,1978.70288721852,1979.20287767673,1981.1301967,NaN,NaN,0,NaN,0.427396499999986
SX103,prp,0,3,34,face_18,object_12,non-target,object,center,object_14,1,0.861111111111111,0.232,0.232,onset,1100,204,1981.14031859763,NaN,0,cr,1,1981.3724319,1100,1,1981.839637,1100,0,1982.14723671852,1983.14720811852,1983.9980156,NaN,NaN,0,NaN,0.467205100000001
SX103,prp,0,3,36,face_18,object_12,irrelevant,letter,center,letter_09,1,1.5,0.116,0.116,onset,1100,19,1987.47347515584,NaN,0,cr,1,1987.5895738,1100,1,1988.0073201,1100,0,1988.48039051852,1989.48036267897,1990.970069,NaN,NaN,0,NaN,0.41774630000009
SX103,prp,0,3,37,face_18,object_12,irrelevant,letter,center,letter_14,1,1.07638888888889,0.116,0.116,onset,1100,24,1990.98032297673,NaN,0,cr,1,1991.096532,1100,1,1991.4716655,1100,0,1991.98724203941,1992.98721447897,1994.0533081,NaN,NaN,0,NaN,0.375133499999947
SX103,prp,0,4,1,face_04,object_16,non-target,face,center,face_15,1.5,1.20833333333333,0,0,onset,1000,85,2002.76472077897,NaN,0,cr,2,2002.7657633,1000,1,2003.9511451,1000,0,2004.27162291852,2004.77160761852,2005.9696205,NaN,NaN,1996.0843523678,NaN,1.18538180000019
SX103,prp,0,4,2,face_04,object_16,irrelevant,letter,center,letter_14,0.5,0.916666666666667,0,0,onset,1100,24,2005.97990387897,NaN,0,cr,1,2005.9809881,1100,1,2006.6310741,1100,0,2006.48683432299,2007.98679227897,2008.8932136,NaN,NaN,0,NaN,0.650085999999874
SX103,prp,0,4,3,face_04,object_16,non-target,face,left,face_01,1.5,0.916666666666667,0.232,1.732,offset,1000,91,2008.90343841629,2010.0716129,1,fa,2,2010.635484,1000,1,2011.2635476,1,1000,2010.41033993941,2010.91032445807,2011.8166397,NaN,NaN,0,1.16817448371467,0.628063600000132
SX103,prp,0,4,4,face_04,object_16,non-target,object,left,object_10,1,1.97916666666667,0,0,onset,1100,220,2011.82696321852,NaN,0,cr,1,2011.8280094,1100,1,2012.3350706,1100,0,2012.83388409093,2013.83385534914,2015.8027596,NaN,NaN,0,NaN,0.50706120000018
SX103,prp,0,4,5,face_04,object_16,irrelevant,false_font,center,false_font_10,1.5,0.763888888888889,0.232,0.232,onset,1000,140,2015.81297008869,NaN,0,cr,2,2016.0451794,1000,1,2016.4556447,1000,0,2017.31986562299,2017.81985061852,2018.573521,NaN,NaN,0,NaN,0.410465299999942
SX103,prp,0,4,6,face_04,object_16,irrelevant,false_font,right,false_font_09,0.5,1.81944444444444,0.466,0.966,offset,1000,179,2018.58372309763,NaN,0,cr,2,2019.5499609,1000,1,2019.9835589,1000,0,2019.09065027673,2020.59061101629,2022.3999255,NaN,NaN,0,NaN,0.433597999999847
SX103,prp,0,4,7,face_04,object_16,irrelevant,false_font,center,false_font_10,1,0.75,0,1,offset,1100,140,2022.41000413941,NaN,0,cr,1,2023.4179127,1100,1,2023.8634039,1100,0,2023.41691837003,2024.41688807897,2025.1566753,NaN,NaN,0,NaN,0.445491200000106
SX103,prp,0,4,8,face_04,object_16,irrelevant,letter,left,letter_07,1,0.881944444444444,0.466,1.466,offset,1100,37,2025.16686805807,NaN,0,cr,1,2026.6329831,1100,1,2026.9275241,1100,0,2026.17378929093,2027.17375717003,2028.0454347,NaN,NaN,0,NaN,0.294540999999981
SX103,prp,0,4,9,face_04,object_16,irrelevant,letter,right,letter_05,1,0.756944444444444,0.116,0.116,onset,1100,55,2028.05567801852,NaN,0,cr,1,2028.1717487,1100,1,2028.5276712,1100,0,2029.06259399316,2030.06256591852,2030.8092999,NaN,NaN,0,NaN,0.355922499999906
SX103,prp,0,4,10,face_04,object_16,irrelevant,false_font,center,false_font_15,1,1.5,0.466,1.466,offset,1100,145,2030.81948801852,NaN,0,cr,1,2032.2856743,1100,1,2032.7357733,1100,0,2031.82640652824,2032.82637937673,2034.3160279,NaN,NaN,0,NaN,0.450098999999909
SX103,prp,0,4,12,face_04,object_16,non-target,face,center,face_07,0.5,1.50694444444444,0,0,onset,1100,77,2037.38180543495,NaN,0,cr,1,2037.3828286,1100,1,2038.5436964,1100,0,2037.88873261852,2039.38869413941,2040.8852856,NaN,NaN,0,NaN,1.16086780000001
SX103,prp,0,4,13,face_04,object_16,non-target,object,center,object_13,1,1.8125,0.116,1.116,offset,1000,203,2040.89559503718,NaN,0,cr,2,2042.0116528,1000,1,2042.4395641,1000,0,2041.90251520958,2042.90248398869,2044.70469,NaN,NaN,0,NaN,0.427911300000005
SX103,prp,0,4,14,face_04,object_16,non-target,face,left,face_15,1.5,0.708333333333333,0.116,0.116,onset,1100,105,2044.71493493718,NaN,0,cr,1,2044.8311944,1100,1,2045.3197654,1100,0,2046.22183686031,2046.72182075807,2047.419993,NaN,NaN,0,NaN,0.488571000000093
SX103,prp,0,4,16,face_04,object_16,irrelevant,false_font,right,false_font_11,1.5,1.75,0,1.5,offset,1100,181,2050.24949983941,NaN,0,cr,1,2051.7575481,1100,1,2052.135733,1100,0,2051.75640096031,2052.25638781629,2053.9961862,NaN,NaN,0,NaN,0.378184900000178
SX103,prp,0,4,17,face_04,object_16,irrelevant,false_font,center,false_font_13,0.5,0.708333333333333,0.466,0.966,offset,1000,143,2054.00633575807,NaN,0,cr,2,2054.9723736,1000,1,2055.4395109,1000,0,2054.51326686031,2056.01322160433,2056.71123,NaN,NaN,0,NaN,0.467137300000104
SX103,prp,0,4,18,face_04,object_16,non-target,object,right,object_03,1,1.93055555555556,0.116,1.116,offset,1100,233,2056.72154049763,NaN,0,cr,1,2057.837723,1100,1,2058.1511916,1100,0,2057.72845712824,2058.72842964914,2060.6488293,NaN,NaN,0,NaN,0.313468599999851
SX103,prp,0,4,19,face_04,object_16,non-target,object,right,object_14,1,1.81944444444444,0.116,1.116,offset,1000,244,2060.65892981852,NaN,0,cr,2,2061.7750378,1000,1,2062.3512104,1000,0,2061.66584499763,2062.66581607897,2064.4749996,NaN,NaN,0,NaN,0.576172600000064
SX103,prp,0,4,20,face_04,object_16,irrelevant,false_font,right,false_font_03,1,1.40972222222222,0.116,0.116,onset,1100,173,2064.48520981629,NaN,0,cr,1,2064.6014468,1100,1,2064.9356773,1100,0,2065.49212513718,2066.49209825584,2067.8916811,NaN,NaN,0,NaN,0.334230500000103
SX103,prp,0,4,21,face_04,object_16,irrelevant,false_font,left,false_font_01,0.5,1.27083333333333,0.116,0.116,onset,1100,151,2067.90178073495,NaN,0,cr,1,2068.0178696,1100,1,2068.3591387,1100,0,2068.40871137897,2069.90867345807,2071.1691692,NaN,NaN,0,NaN,0.341269100000318
SX103,prp,0,4,22,face_04,object_16,non-target,object,center,object_05,1.5,1.97222222222222,0.466,1.966,offset,1100,195,2071.17947163718,NaN,0,cr,1,2073.1456769,1100,1,2073.5357662,1100,0,2072.68637189986,2073.18636011629,2075.1482965,NaN,NaN,0,NaN,0.3900893
SX103,prp,0,4,23,face_04,object_16,non-target,face,left,face_01,0.5,0.75,0.466,0.466,onset,1100,91,2075.15852523941,2075.6551749,1,fa,1,2075.6246298,1100,1,2076.1671753,1,1100,2075.66545555807,2077.1585144812,2077.9050686,NaN,NaN,0,0.496649660587991,0.54254549999996
SX103,prp,0,4,24,face_04,object_16,non-target,face,left,face_13,1,0.979166666666667,0.466,0.466,onset,1000,103,2077.91539351629,NaN,0,cr,2,2078.3814578,1000,1,2078.8556553,1000,0,2078.92235965584,2079.92227985807,2080.8911654,NaN,NaN,0,NaN,0.474197499999718
SX103,prp,0,4,25,face_04,object_16,non-target,object,center,object_01,0.5,0.722222222222222,0.232,0.232,onset,1100,191,2080.90141909986,NaN,0,cr,1,2081.1335959,1100,1,2081.4316762,1100,0,2081.40834943941,2082.90830541852,2083.6203886,NaN,NaN,0,NaN,0.298080300000038
SX103,prp,0,4,26,face_04,object_16,irrelevant,false_font,center,false_font_11,1.5,0.743055555555555,0,1.5,offset,1000,141,2083.63051186031,NaN,0,cr,2,2085.1385238,1000,1,2085.8317026,1000,0,2085.13740985807,2085.63739952075,2086.3702682,NaN,NaN,0,NaN,0.693178800000169
SX103,prp,0,4,27,face_04,object_16,non-target,face,right,face_03,0.5,0.916666666666667,0,0.5,offset,1000,113,2086.38043127897,NaN,0,cr,2,2086.8884736,1000,1,2087.223484,1000,0,2086.88736549763,2088.38731902075,2089.2937283,NaN,NaN,0,NaN,0.335010400000101
SX103,prp,0,4,28,face_04,object_16,irrelevant,letter,left,letter_19,0.5,1.95138888888889,0.116,0.616,offset,1000,49,2089.30395969986,NaN,0,cr,2,2089.9200541,1000,1,2090.2232349,1000,0,2089.81089121852,2091.31085046031,2093.2519815,NaN,NaN,0,NaN,0.303180800000064
SX103,prp,0,4,29,face_04,object_16,non-target,object,center,object_09,1,0.923611111111111,0.466,0.466,onset,1000,199,2093.26218751852,NaN,0,cr,2,2093.7284284,1000,1,2094.1996052,1000,0,2094.26909983941,2095.26907861405,2096.1824664,NaN,NaN,0,NaN,0.471176799999739
SX103,prp,0,4,30,face_04,object_16,irrelevant,letter,right,letter_19,1.5,1.44444444444444,0,1.5,offset,1100,69,2096.19266073718,NaN,0,cr,1,2097.7006774,1000,0,2098.063813,1000,0,2097.69956011852,2098.19954903941,2099.6338584,NaN,NaN,0,NaN,0.363135600000078
SX103,prp,0,4,31,face_04,object_16,non-target,face,left,face_16,1,1.24305555555556,0.232,1.232,offset,1100,106,2099.64395237897,NaN,0,cr,1,2100.8762067,1100,1,2101.3275758,1100,0,2100.65087388869,2101.65083792075,2102.8836413,NaN,NaN,0,NaN,0.451369100000193
SX103,prp,0,4,32,face_04,object_16,irrelevant,letter,center,letter_04,1,1.0625,0,1,offset,1000,14,2102.89386451852,NaN,0,cr,2,2103.9019066,1000,1,2104.4957274,1000,0,2103.90077663941,2104.90075313718,2105.9530479,NaN,NaN,0,NaN,0.593820799999776
SX103,prp,0,4,33,face_04,object_16,non-target,face,center,face_10,1.5,0.798611111111111,0.232,1.732,offset,1000,80,2105.96322377673,NaN,0,cr,2,2107.6953463,1000,1,2108.1356113,1000,0,2107.47012060209,2107.97010581852,2108.7583946,NaN,NaN,0,NaN,0.440265000000181
SX103,prp,0,4,34,face_04,object_16,irrelevant,letter,center,letter_05,0.5,1.34722222222222,0.116,0.116,onset,1100,15,2108.76869446031,NaN,0,cr,1,2108.8848945,1100,1,2109.5596212,1100,0,2109.27562905807,2110.77559823048,2112.112492,NaN,NaN,0,NaN,0.674726700000065
SX103,prp,0,5,3,face_19,object_16,irrelevant,letter,right,letter_17,0.5,1.40277777777778,0.116,0.116,onset,1100,67,2139.09424273718,NaN,0,cr,1,2139.2103641,1100,1,2139.8878337,1100,0,2139.60116797897,2141.10113135584,2142.4937301,NaN,NaN,0,NaN,0.677469600000222
SX103,prp,0,5,4,face_19,object_16,irrelevant,false_font,right,false_font_02,1.5,1.81944444444444,0.116,0.116,onset,1100,172,2142.50392721629,NaN,0,cr,1,2142.6200556,1100,1,2143.1192983,1100,0,2144.01078719986,2144.51075301852,2146.320079,NaN,NaN,0,NaN,0.499242700000195
SX103,prp,0,5,5,face_19,object_16,irrelevant,letter,left,letter_10,1.5,0.805555555555555,0.466,1.966,offset,1100,40,2146.33015181629,NaN,0,cr,1,2148.2963393,1100,1,2148.575629,1100,0,2147.83704917897,2148.33703913718,2149.1323588,NaN,NaN,0,NaN,0.279289699999936
SX103,prp,0,5,6,face_19,object_16,non-target,face,center,face_12,1.5,1.27083333333333,0,1.5,offset,1000,82,2149.14257105807,NaN,0,cr,2,2150.6505772,1000,1,2151.135304,1000,0,2150.64947519763,2151.14945921852,2152.4100714,NaN,NaN,0,NaN,0.484726799999862
SX103,prp,0,5,7,face_19,object_16,non-target,object,center,object_17,0.5,1.10416666666667,0.466,0.466,onset,1100,207,2152.42025601629,NaN,0,cr,1,2152.8864892,1100,1,2153.6079569,1100,0,2152.92718527673,2154.42714557897,2155.5210477,NaN,NaN,0,NaN,0.721467699999721
SX103,prp,0,5,8,face_19,object_16,irrelevant,false_font,center,false_font_15,0.5,1.65277777777778,0.232,0.232,onset,1000,145,2155.5312773812,NaN,0,cr,2,2155.7633201,1000,1,2156.1916603,1000,0,2156.03821331852,2157.53816777673,2159.180725,NaN,NaN,0,NaN,0.428340200000093
SX103,prp,0,5,9,face_19,object_16,irrelevant,false_font,center,false_font_15,1.5,1.23611111111111,0.116,0.116,onset,1100,145,2159.19089813941,NaN,0,cr,1,2159.3071056,1100,1,2159.7112494,1100,0,2160.69780559763,2161.19779043718,2162.4237479,NaN,NaN,0,NaN,0.404143799999929
SX103,prp,0,5,10,face_19,object_16,irrelevant,false_font,right,false_font_14,1.5,1.31944444444444,0,0,onset,1000,184,2162.43386337897,NaN,0,cr,2,2162.434898,1000,1,2162.8798361,1000,0,2163.94082623718,2164.44075173718,2165.7498676,NaN,NaN,0,NaN,0.444938099999945
SX103,prp,0,5,11,face_19,object_16,non-target,face,center,face_16,1,1.27777777777778,0.466,0.466,onset,1000,86,2165.76016137897,NaN,0,cr,2,2166.226237,1000,1,2166.9036607,1000,0,2166.76707913495,2167.76705085807,2169.0345719,NaN,NaN,0,NaN,0.677423699999963
SX103,prp,0,5,12,face_19,object_16,non-target,object,left,object_18,0.5,0.854166666666667,0.232,0.732,offset,1100,228,2169.04479431629,NaN,0,cr,1,2169.7769243,1100,1,2170.1758057,1100,0,2169.55172029539,2171.05167551852,2171.8957065,NaN,NaN,0,NaN,0.398881400000391
SX103,prp,0,5,13,face_19,object_16,non-target,object,center,object_18,1,1.125,0,0,onset,1100,208,2171.90582387897,NaN,0,cr,1,2171.9069001,1100,1,2172.4472845,1100,0,2172.91273744914,2173.91271250958,2175.0275758,NaN,NaN,0,NaN,0.540384400000221
SX103,prp,0,5,14,face_19,object_16,irrelevant,false_font,right,false_font_05,1.5,0.881944444444444,0.466,0.466,onset,1100,175,2175.03767957897,NaN,0,cr,1,2175.5038025,1100,1,2176.0720034,1100,0,2176.54458147897,2177.04456451852,2177.9161715,NaN,NaN,0,NaN,0.568200900000193
SX103,prp,0,5,15,face_19,object_16,non-target,object,center,object_02,1,1.13888888888889,0,0,onset,1000,192,2177.92648385807,NaN,0,cr,2,2177.9275362,1000,1,2178.4232954,1000,0,2178.93340303941,2179.93337427673,2181.0619622,NaN,NaN,0,NaN,0.495759200000066
SX103,prp,0,5,16,face_19,object_16,irrelevant,false_font,center,false_font_18,1.5,1.25694444444444,0,0,onset,1100,148,2181.07223087897,NaN,0,cr,1,2181.0732726,1100,1,2181.8798228,1100,0,2182.57913031852,2183.07911967897,2184.3259301,NaN,NaN,0,NaN,0.806550199999947
SX103,prp,0,5,17,face_19,object_16,irrelevant,letter,left,letter_02,0.5,1.42361111111111,0,0,onset,1100,32,2184.33602691629,NaN,0,cr,1,2184.3370669,1100,1,2184.768043,1100,0,2184.84296049763,2186.34291531852,2187.7563517,NaN,NaN,0,NaN,0.430976099999953
SX103,prp,0,5,18,face_19,object_16,irrelevant,false_font,left,false_font_03,1.5,1.90972222222222,0.232,1.732,offset,1100,153,2187.76648373941,NaN,0,cr,1,2189.4985705,1100,1,2189.8473254,1100,0,2189.27338730209,2189.77337851629,2191.6729654,NaN,NaN,0,NaN,0.348754900000131
SX103,prp,0,5,19,face_19,object_16,non-target,object,center,object_04,1,1.95833333333333,0.466,0.466,onset,1000,194,2191.68304231852,NaN,0,cr,2,2192.1491443,1000,1,2192.5757588,1000,0,2192.68996048869,2193.68993269093,2195.6381185,NaN,NaN,0,NaN,0.426614500000142
SX103,prp,0,5,20,face_19,object_16,non-target,object,left,object_15,1,0.881944444444444,0.232,1.232,offset,1000,225,2195.64820875807,NaN,0,cr,2,2196.8802653,1000,1,2197.4556525,1000,0,2196.65512903048,2197.65510207003,2198.5268968,NaN,NaN,0,NaN,0.575387200000023
SX103,prp,0,5,21,face_19,object_16,irrelevant,letter,right,letter_02,1.5,1.80555555555556,0.116,1.616,offset,1000,52,2198.53701616031,NaN,0,cr,2,2200.1531924,1000,1,2200.711923,1000,0,2200.04392059539,2200.54390307673,2202.3392998,NaN,NaN,0,NaN,0.558730599999762
SX103,prp,0,5,22,face_19,object_16,non-target,face,center,face_11,1.5,1.00694444444444,0.232,1.732,offset,1100,81,2202.34940619986,2203.7834285,1,fa,1,2204.0815882,0,NaN,NaN,1,0,2203.85631411852,2204.35629973941,2205.3530763,NaN,NaN,0,1.4340223001409,NaN
SX103,prp,0,5,23,face_19,object_16,irrelevant,letter,right,letter_13,0.5,1.40277777777778,0.466,0.966,offset,1000,63,2205.36321241405,NaN,0,cr,2,2206.3294474,1100,0,2205.7673488,1100,1000,2205.87014105807,2207.36316101405,2208.7625332,NaN,NaN,0,NaN,NaN
SX103,prp,0,5,25,face_19,object_16,non-target,object,center,object_20,1,1.04166666666667,0,1,offset,1000,210,2211.59220463941,NaN,0,cr,2,2212.6001771,1000,1,2213.2076932,1000,0,2212.5991194745,2213.59909255137,2214.6306279,NaN,NaN,0,NaN,0.607516099999884
SX103,prp,0,5,26,face_19,object_16,irrelevant,false_font,center,false_font_10,1,0.9375,0,1,offset,1000,140,2214.64073439316,NaN,0,cr,2,2215.6486373,1000,1,2216.3113595,1000,0,2215.64764700958,2216.64762130735,2217.5749336,NaN,NaN,0,NaN,0.662722200000189
SX103,prp,0,5,27,face_19,object_16,non-target,face,right,face_15,0.5,1.22222222222222,0.232,0.732,offset,1000,125,2217.58509523048,NaN,0,cr,2,2218.3172853,1000,1,2218.7993638,1000,0,2218.09202427897,2219.59198009763,2220.8039432,NaN,NaN,0,NaN,0.482078499999716
SX103,prp,0,5,28,face_19,object_16,irrelevant,false_font,right,false_font_13,0.5,1.20833333333333,0.116,0.116,onset,1100,183,2220.81416615807,NaN,0,cr,1,2220.930401,1100,1,2221.4637501,1100,0,2221.32110091629,2222.82105507897,2224.0191033,NaN,NaN,0,NaN,0.533349100000123
SX103,prp,0,5,29,face_19,object_16,non-target,object,center,object_02,1.5,1.84722222222222,0.116,0.116,onset,1100,192,2224.02935459763,NaN,0,cr,1,2224.1454633,1100,1,2224.9839608,1100,0,2225.53625967897,2226.03624275807,2227.8733235,NaN,NaN,0,NaN,0.838497500000358
SX103,prp,0,5,30,face_19,object_16,non-target,object,right,object_10,0.5,1.04166666666667,0.116,0.616,offset,1100,240,2227.88341715807,NaN,0,cr,1,2228.4995048,1100,1,2228.9593975,1100,0,2228.39034517897,2229.89030587897,2230.9217559,NaN,NaN,0,NaN,0.459892699999727
SX103,prp,0,5,31,face_19,object_16,irrelevant,false_font,center,false_font_12,0.5,1.11805555555556,0.116,0.616,offset,1100,142,2230.93194349092,NaN,0,cr,1,2231.5481792,1100,1,2231.9593431,1100,0,2231.43886823941,2232.93882949986,2234.0467518,NaN,NaN,0,NaN,0.411163899999792
SX103,prp,0,5,33,face_19,object_16,non-target,object,center,object_17,1,0.916666666666667,0.232,0.232,onset,1100,207,2238.03591330958,NaN,0,cr,1,2238.2680004,1100,1,2238.7840179,1100,0,2239.04282813718,2240.04280039763,2240.9492496,NaN,NaN,0,NaN,0.516017500000089
SX103,prp,0,5,34,face_19,object_16,non-target,face,left,face_05,0.5,1.79861111111111,0.466,0.466,onset,1000,95,2240.95943791852,NaN,0,cr,2,2241.4254717,1000,1,2241.9997859,1000,0,2241.46636835807,2242.96632459763,2244.7546014,NaN,NaN,0,NaN,0.574314200000117
SX103,prp,0,5,35,face_19,object_16,irrelevant,false_font,center,false_font_13,1,1.17361111111111,0.466,1.466,offset,1100,143,2244.76489005807,NaN,0,cr,1,2246.2309433,1100,1,2246.6474336,1100,0,2245.77180521852,2246.77177617897,2247.9350763,NaN,NaN,0,NaN,0.416490300000078
SX103,prp,0,5,36,face_19,object_16,non-target,face,center,face_13,1.5,1.86111111111111,0.466,1.966,offset,1000,83,2247.94535757227,NaN,0,cr,2,2249.9114,1000,1,2250.3513872,1000,0,2249.45225855807,2249.95224591852,2251.8030749,NaN,NaN,0,NaN,0.439987199999905
SX103,prp,0,6,1,face_07,object_01,non-target,object,left,object_19,1,1.9375,0.466,0.466,onset,1000,229,2263.90324044165,NaN,0,cr,2,2264.3694886,1000,1,2265.2800369,1000,0,2264.91016213718,2265.91013217673,2267.8373955,NaN,NaN,2257.16039280958,NaN,0.910548300000301
SX103,prp,0,6,4,face_07,object_01,non-target,face,left,face_20,0.5,0.777777777777778,0.232,0.732,offset,1000,110,2273.93074363941,NaN,0,cr,2,2274.662935,1000,1,2275.495963,1000,0,2274.43767275807,2275.93763415584,2276.7051372,NaN,NaN,0,NaN,0.833028000000013
SX103,prp,0,6,5,face_07,object_01,non-target,face,center,face_16,0.5,1.11111111111111,0,0.5,offset,1000,86,2276.71538499763,NaN,0,cr,2,2277.2234156,1000,1,2277.9274486,1000,0,2277.22231781852,2278.72227163941,2279.8231641,NaN,NaN,0,NaN,0.704032999999981
SX103,prp,0,6,6,face_07,object_01,irrelevant,letter,left,letter_05,0.5,1.13194444444444,0.232,0.732,offset,1100,35,2279.83335725584,NaN,0,cr,1,2280.5655828,1100,1,2281.0636112,1100,0,2280.34028623941,2281.84024423718,2282.9618486,NaN,NaN,0,NaN,0.498028400000294
SX103,prp,0,6,7,face_07,object_01,irrelevant,letter,center,letter_18,1,1.79861111111111,0.466,0.466,onset,1000,28,2282.97215505807,NaN,0,cr,2,2283.4383815,1000,1,2283.7678313,1000,0,2283.97907315807,2284.97904583718,2286.7673273,NaN,NaN,0,NaN,0.32944980000002
SX103,prp,0,6,8,face_07,object_01,irrelevant,letter,left,letter_11,0.5,0.916666666666667,0.466,0.466,onset,1100,41,2286.77760699763,NaN,0,cr,1,2287.2438223,1100,1,2287.6639351,1100,0,2287.28453653718,2288.78449472075,2289.6909547,NaN,NaN,0,NaN,0.42011279999997
SX103,prp,0,6,9,face_07,object_01,non-target,face,center,face_01,1,0.75,0.232,1.232,offset,1100,71,2289.70113317673,NaN,0,cr,1,2290.9333506,1100,1,2291.2238669,1100,0,2290.70805630958,2291.70802673718,2292.4477241,NaN,NaN,0,NaN,0.290516300000036
SX103,prp,0,6,10,face_07,object_01,non-target,face,left,face_04,1,1.44444444444444,0.116,1.116,offset,1000,94,2292.45800329763,NaN,0,cr,2,2293.5740439,1000,1,2294.272015,1000,0,2293.46492207226,2294.46489371852,2295.8990957,NaN,NaN,0,NaN,0.697971099999904
SX103,prp,0,6,11,face_07,object_01,irrelevant,letter,center,letter_18,1,0.895833333333333,0.116,0.116,onset,1000,28,2295.90929463718,NaN,0,cr,2,2296.0254935,1000,1,2296.5594641,1000,0,2296.91621598869,2297.91618664914,2298.8017337,NaN,NaN,0,NaN,0.533970599999975
SX103,prp,0,6,12,face_07,object_01,irrelevant,false_font,center,false_font_19,1,1.46527777777778,0.466,0.466,onset,1000,149,2298.81199239316,NaN,0,cr,2,2299.2782372,1000,1,2299.6155375,1000,0,2299.81891052824,2300.81888430958,2302.2740219,NaN,NaN,0,NaN,0.337300299999697
SX103,prp,0,6,13,face_07,object_01,non-target,object,center,object_17,1.5,1.11805555555556,0.232,1.732,offset,1100,207,2302.28411745584,NaN,0,cr,1,2304.0162403,1100,1,2304.527991,1100,0,2303.79102027897,2304.29100649986,2305.3987318,NaN,NaN,0,NaN,0.511750699999993
SX103,prp,0,6,14,face_07,object_01,non-target,face,left,face_14,1,0.826388888888889,0.466,1.466,offset,1100,104,2305.40903077897,NaN,0,cr,1,2306.8752538,1100,1,2307.3280362,1100,0,2306.4159530678,2307.41591721852,2308.2320124,NaN,NaN,0,NaN,0.45278240000016
SX103,prp,0,6,15,face_07,object_01,irrelevant,letter,left,letter_05,1.5,1.27083333333333,0.232,0.232,onset,1100,35,2308.24228845807,NaN,0,cr,1,2308.4745353,1100,1,2308.9040019,1100,0,2309.74919133495,2310.24917463941,2311.5098738,NaN,NaN,0,NaN,0.429466600000069
SX103,prp,0,6,17,face_07,object_01,irrelevant,false_font,center,false_font_02,1.5,0.715277777777778,0.116,0.116,onset,1000,132,2314.71432735584,NaN,0,cr,2,2314.8304423,1000,1,2315.4558733,1000,0,2316.22122977673,2316.72121827897,2317.4262432,NaN,NaN,0,NaN,0.625430999999935
SX103,prp,0,6,18,face_07,object_01,irrelevant,letter,center,letter_03,1,0.826388888888889,0.232,0.232,onset,1000,13,2317.43647495807,NaN,0,cr,2,2317.6685257,1000,1,2318.0235225,1000,0,2318.44339307673,2319.44336311852,2320.2595027,NaN,NaN,0,NaN,0.354996800000208
SX103,prp,0,6,19,face_07,object_01,irrelevant,false_font,center,false_font_13,0.5,0.840277777777778,0.466,0.966,offset,1100,143,2320.26972671852,NaN,0,cr,1,2321.235937,1100,1,2321.7200513,1100,0,2320.77665647897,2322.27661953718,2323.1067132,NaN,NaN,0,NaN,0.484114299999874
SX103,prp,0,6,20,face_07,object_01,irrelevant,letter,center,letter_15,1.5,1.36805555555556,0.232,1.732,offset,1000,25,2323.11686927897,NaN,0,cr,2,2324.8489078,1000,1,2325.1117858,1000,0,2324.62377277897,2325.12376053271,2326.481585,NaN,NaN,0,NaN,0.262878000000001
SX103,prp,0,6,22,face_07,object_01,non-target,object,center,object_20,0.5,1.34722222222222,0,0.5,offset,1000,210,2330.08195219986,NaN,0,cr,2,2330.5899773,1000,1,2330.8634717,1000,0,2330.58888693718,2332.08883957897,2333.4259093,NaN,NaN,0,NaN,0.27349439999989
SX103,prp,0,6,23,face_07,object_01,irrelevant,false_font,right,false_font_19,0.5,1.54166666666667,0.232,0.232,onset,1000,189,2333.43602893718,NaN,0,cr,2,2333.6681976,1000,1,2334.4555151,1000,0,2333.94295795807,2335.44291337673,2336.9743644,NaN,NaN,0,NaN,0.787317499999972
SX103,prp,0,6,26,face_07,object_01,non-target,object,right,object_06,1,1.07638888888889,0.116,0.116,onset,1100,236,2344.03989859763,NaN,0,cr,1,2344.156027,1100,1,2345.047859,1100,0,2345.04681872824,2346.04678691852,2347.1128472,NaN,NaN,0,NaN,0.891831999999795
SX103,prp,0,6,27,face_07,object_01,irrelevant,false_font,right,false_font_01,1,0.902777777777778,0.466,1.466,offset,1100,171,2347.12314335807,NaN,0,cr,1,2348.5893735,1100,1,2349.0243074,1100,0,2348.13006309763,2349.13003205807,2350.0226744,NaN,NaN,0,NaN,0.434933900000033
SX103,prp,0,6,28,face_07,object_01,non-target,object,left,object_12,0.5,0.916666666666667,0.232,0.732,offset,1100,222,2350.03278603718,NaN,0,cr,1,2350.7648358,1100,1,2351.2400259,1100,0,2350.53971265807,2352.03967266031,2352.9462082,NaN,NaN,0,NaN,0.475190099999963
SX103,prp,0,6,29,face_07,object_01,irrelevant,letter,center,letter_18,1.5,0.854166666666667,0.116,0.116,onset,1000,28,2352.95631387897,NaN,0,cr,2,2353.0725619,1000,1,2353.4481564,1000,0,2354.46321781852,2354.96320177897,2355.8072136,NaN,NaN,0,NaN,0.375594499999806
SX103,prp,0,6,30,face_07,object_01,irrelevant,false_font,left,false_font_11,0.5,0.722222222222222,0.466,0.466,onset,1000,161,2355.81735220209,NaN,0,cr,2,2356.2835495,1000,1,2356.8637899,1000,0,2356.32427517897,2357.82423233941,2358.5362268,NaN,NaN,0,NaN,0.580240400000093
SX103,prp,0,6,31,face_07,object_01,non-target,object,center,object_20,1.5,0.895833333333333,0,0,onset,1100,210,2358.54643685807,NaN,0,cr,1,2358.5474674,1100,1,2359.3115196,1100,0,2360.05333685584,2360.55332547897,2361.4388556,NaN,NaN,0,NaN,0.764052199999696
SX103,prp,0,6,32,face_07,object_01,non-target,face,right,face_05,1,1.54166666666667,0.116,0.116,onset,1000,115,2361.44913141852,NaN,0,cr,2,2361.5653129,1000,1,2362.1039614,1000,0,2362.45605003271,2363.45602079539,2364.9874618,NaN,NaN,0,NaN,0.538648499999908
SX103,prp,0,6,33,face_07,object_01,non-target,object,left,object_04,1,1.48611111111111,0.466,1.466,offset,1100,214,2364.99764556031,NaN,0,cr,1,2366.4638383,1100,1,2366.8479075,1100,0,2366.0045604678,2367.00453565807,2368.4803599,NaN,NaN,0,NaN,0.384069199999885
SX103,prp,0,6,34,face_07,object_01,irrelevant,letter,center,letter_19,1.5,1.15972222222222,0.466,1.966,offset,1000,29,2368.49060073941,NaN,0,cr,2,2370.4568068,1000,1,2370.9441071,1000,0,2369.99750291852,2370.49748849763,2371.6470192,NaN,NaN,0,NaN,0.487300300000243
SX103,prp,0,6,35,face_07,object_01,non-target,object,center,object_20,1.5,1.89583333333333,0.116,0.116,onset,1000,210,2371.65718297897,NaN,0,cr,2,2371.7733549,1000,1,2372.2641789,1000,0,2373.16408034165,2373.66406859986,2375.5496015,NaN,NaN,0,NaN,0.490823999999975
SX103,prp,0,6,36,face_07,object_01,irrelevant,letter,right,letter_11,0.5,1.13888888888889,0.232,0.232,onset,1000,61,2375.55988882299,NaN,0,cr,2,2375.792095,1000,1,2376.1595331,1000,0,2376.06678031852,2377.56674041852,2378.6954672,NaN,NaN,0,NaN,0.367438100000072
SX103,prp,0,6,37,face_07,object_01,non-target,object,center,object_11,0.5,1.65972222222222,0.232,0.732,offset,1000,201,2378.70559771852,NaN,0,cr,2,2379.4377193,1000,1,2379.8795772,1000,0,2379.21252337897,2380.71248083941,2382.3619608,NaN,NaN,0,NaN,0.441857899999832
SX103,prp,0,6,38,face_07,object_01,non-target,face,center,face_08,0.5,1.13194444444444,0.116,0.616,offset,1000,78,2382.37216189763,2383.0959479,1,fa,2,2382.9882433,1000,1,2383.759594,1,1000,2382.87908923718,2384.37904625807,2385.500658,NaN,NaN,0,0.723786002374254,0.771350700000312
SX103,prp,0,7,1,letter_12,false_font_07,non-target,letter,right,letter_16,0.5,1.52083333333333,0.232,0.232,onset,1000,66,2396.50371403718,NaN,0,cr,2,2396.7359311,1000,1,2397.3682268,1000,0,2397.01064323718,2398.51060216031,2400.021211,NaN,NaN,2390.56638533271,NaN,0.632295699999759
SX103,prp,0,7,2,letter_12,false_font_07,irrelevant,object,right,object_19,1.5,0.791666666666667,0.466,0.466,onset,1000,249,2400.03138953495,NaN,0,cr,2,2400.4976336,1000,1,2400.8395899,1000,0,2401.53829079539,2402.03827610433,2402.8196296,NaN,NaN,0,NaN,0.34195630000022
SX103,prp,0,7,3,letter_12,false_font_07,irrelevant,object,right,object_09,1.5,1.03472222222222,0.232,1.732,offset,1000,239,2402.82992117897,NaN,0,cr,2,2404.5620591,1000,1,2405.0002072,1000,0,2404.33682627897,2404.83681319539,2405.8612474,NaN,NaN,0,NaN,0.438148100000035
SX103,prp,0,7,4,letter_12,false_font_07,irrelevant,face,center,face_04,1.5,1.02083333333333,0.232,1.732,offset,1100,74,2405.87150437897,NaN,0,cr,1,2407.6036704,1100,1,2408.0959313,1100,0,2407.37840569986,2407.87839147897,2408.8889008,NaN,NaN,0,NaN,0.492260900000019
SX103,prp,0,7,5,letter_12,false_font_07,irrelevant,object,right,object_08,1,1.52777777777778,0,0,onset,1100,238,2408.89919890958,NaN,0,cr,1,2408.9001105,1100,1,2409.4636812,1100,0,2409.90611635584,2410.90608711405,2412.4236128,NaN,NaN,0,NaN,0.563570699999673
SX103,prp,0,7,6,letter_12,false_font_07,non-target,false_font,center,false_font_13,1,1.31944444444444,0.466,1.466,offset,1000,143,2412.43382021852,NaN,0,cr,2,2413.8999239,1000,1,2414.3676228,1000,0,2413.44074259092,2414.44071005807,2415.7498122,NaN,NaN,0,NaN,0.467698899999959
SX103,prp,0,7,7,letter_12,false_font_07,non-target,letter,center,letter_17,0.5,1.34722222222222,0.116,0.116,onset,1100,27,2415.76011595807,NaN,0,cr,1,2415.8763571,1000,0,2416.3360488,1000,0,2416.26704601629,2417.76700427897,2419.1039215,NaN,NaN,0,NaN,0.459691699999894
SX103,prp,0,7,8,letter_12,false_font_07,irrelevant,object,center,object_02,0.5,1.07638888888889,0,0.5,offset,1000,192,2419.11419023718,NaN,0,cr,2,2419.622268,1000,1,2420.0716254,1000,0,2419.62112235584,2421.12107781629,2422.1872725,NaN,NaN,0,NaN,0.449357399999826
SX103,prp,0,7,10,letter_12,false_font_07,irrelevant,face,right,face_01,1,0.763888888888889,0.466,1.466,offset,1100,111,2425.06541625584,NaN,0,cr,1,2426.5316293,1100,1,2427.2560128,1100,0,2426.07232673941,2427.07230351852,2427.8260324,NaN,NaN,0,NaN,0.724383499999931
SX103,prp,0,7,11,letter_12,false_font_07,non-target,false_font,left,false_font_02,0.5,1.80555555555556,0.466,0.966,offset,1000,152,2427.83616613941,NaN,0,cr,2,2428.8023046,1000,1,2429.4560421,1000,0,2428.34309697897,2429.84305825807,2431.6383699,NaN,NaN,0,NaN,0.653737500000261
SX103,prp,0,7,12,letter_12,false_font_07,non-target,letter,left,letter_02,1.5,1.125,0.116,0.116,onset,1100,32,2431.64856435807,NaN,0,cr,1,2431.7648233,1100,1,2432.5036098,1100,0,2433.15546205807,2433.65544775807,2434.7702592,NaN,NaN,0,NaN,0.73878650000006
SX103,prp,0,7,13,letter_12,false_font_07,irrelevant,object,left,object_01,1.5,0.923611111111111,0.466,1.966,offset,1100,211,2434.78042177897,NaN,0,cr,1,2436.7466602,1100,1,2437.0721043,1100,0,2436.28732194165,2436.78730823718,2437.7007218,NaN,NaN,0,NaN,0.325444099999913
SX103,prp,0,7,14,letter_12,false_font_07,non-target,false_font,left,false_font_20,1.5,1.25,0.116,1.616,offset,1000,170,2437.71089091629,NaN,0,cr,2,2439.3270822,1000,1,2439.8236753,1000,0,2439.21779685807,2439.71778371629,2440.9575708,NaN,NaN,0,NaN,0.496593100000155
SX103,prp,0,7,15,letter_12,false_font_07,non-target,letter,right,letter_19,0.5,0.729166666666667,0,0.5,offset,1000,69,2440.96774551852,NaN,0,cr,2,2441.4757995,1000,1,2441.9196824,1000,0,2441.47467469986,2442.97464957897,2443.6935376,NaN,NaN,0,NaN,0.443882900000062
SX103,prp,0,7,16,letter_12,false_font_07,non-target,letter,center,letter_16,0.5,1,0.232,0.732,offset,1000,26,2443.70378027897,NaN,0,cr,2,2444.4359585,1000,1,2444.7437191,1000,0,2444.21071339763,2445.71066969763,2446.7003715,NaN,NaN,0,NaN,0.30776059999971
SX103,prp,0,7,17,letter_12,false_font_07,non-target,false_font,center,false_font_08,0.5,1.29166666666667,0.116,0.616,offset,1100,138,2446.71063879539,NaN,0,cr,1,2447.3268769,1100,1,2447.9760643,1100,0,2447.21758477673,2448.71754341629,2449.9990589,NaN,NaN,0,NaN,0.649187399999846
SX103,prp,0,7,19,letter_12,false_font_07,irrelevant,object,center,object_18,1.5,1.375,0.466,0.466,onset,1100,208,2452.71741981852,NaN,0,cr,1,2453.1835458,1100,1,2453.6160839,1100,0,2454.22432181852,2454.72430603718,2456.0891141,NaN,NaN,0,NaN,0.432538099999874
SX103,prp,0,7,20,letter_12,false_font_07,non-target,false_font,right,false_font_02,0.5,0.902777777777778,0,0.5,offset,1000,172,2456.09926599763,NaN,0,cr,2,2456.607309,1000,1,2457.0321671,1000,0,2456.60619537897,2458.10615475807,2458.9986963,NaN,NaN,0,NaN,0.424858100000165
SX103,prp,0,7,21,letter_12,false_font_07,non-target,letter,right,letter_09,1.5,0.729166666666667,0.232,0.232,onset,1100,59,2459.00890939763,NaN,0,cr,1,2459.2411291,1100,1,2459.7601878,1100,0,2460.5158113745,2461.0157985812,2461.7346842,NaN,NaN,0,NaN,0.519058700000187
SX103,prp,0,7,22,letter_12,false_font_07,non-target,false_font,center,false_font_19,0.5,1.22222222222222,0,0.5,offset,1000,149,2461.74494313941,NaN,0,cr,2,2462.2530119,1000,1,2462.5437013,1000,0,2462.25187186031,2463.75183313941,2464.9638333,NaN,NaN,0,NaN,0.290689400000247
SX103,prp,0,7,23,letter_12,false_font_07,non-target,letter,left,letter_14,0.5,0.993055555555555,0.116,0.616,offset,1100,44,2464.97401929763,NaN,0,cr,1,2465.5901439,1100,1,2466.1120601,1100,0,2465.48094835584,2466.98090623718,2467.9638258,NaN,NaN,0,NaN,0.521916199999851
SX103,prp,0,7,24,letter_12,false_font_07,irrelevant,face,center,face_02,0.5,0.923611111111111,0.232,0.232,onset,1000,72,2467.97393739539,NaN,0,cr,2,2468.2060086,1000,1,2468.6720551,1000,0,2468.48086465584,2469.98082325807,2470.8942832,NaN,NaN,0,NaN,0.46604649999972
SX103,prp,0,7,25,letter_12,false_font_07,irrelevant,object,center,object_11,0.5,1.45138888888889,0.116,0.116,onset,1000,201,2470.90440916031,NaN,0,cr,2,2471.0205119,1000,1,2471.4243503,1000,0,2471.41137992075,2472.91129729763,2474.3523471,NaN,NaN,0,NaN,0.403838399999586
SX103,prp,0,7,26,letter_12,false_font_07,irrelevant,face,center,face_19,1,1.27777777777778,0.116,0.116,onset,1000,89,2474.36264391852,NaN,0,cr,2,2474.4788599,1000,1,2474.9441043,1000,0,2475.36956308869,2476.36953859763,2477.6371381,NaN,NaN,0,NaN,0.465244400000302
SX103,prp,0,7,27,letter_12,false_font_07,irrelevant,face,right,face_14,0.5,1.64583333333333,0.232,0.232,onset,1000,124,2477.64727485807,NaN,0,cr,2,2477.8794405,1000,1,2478.4241554,1000,0,2478.15420619763,2479.65416441852,2481.2896863,NaN,NaN,0,NaN,0.544714900000145
SX103,prp,0,7,28,letter_12,false_font_07,non-target,letter,center,letter_13,0.5,0.763888888888889,0,0,onset,1100,23,2481.29994974165,NaN,0,cr,1,2481.3010651,1100,1,2482.2322083,1100,0,2481.80688063941,2483.30683900209,2484.0604571,NaN,NaN,0,NaN,0.931143199999951
SX103,prp,0,7,29,letter_12,false_font_07,irrelevant,object,left,object_07,1.5,1.72916666666667,0.232,1.732,offset,1000,217,2484.07071139763,NaN,0,cr,2,2485.8028789,1000,1,2486.2482102,1000,0,2485.57761342075,2486.07759681629,2487.7964488,NaN,NaN,0,NaN,0.445331299999907
SX103,prp,0,7,30,letter_12,false_font_07,non-target,letter,left,letter_14,1,0.763888888888889,0.232,0.232,onset,1100,44,2487.80671819539,NaN,0,cr,1,2488.0388645,1100,1,2488.9680662,1100,0,2488.8136336536,2489.81360319763,2490.5673344,NaN,NaN,0,NaN,0.929201700000249
SX103,prp,0,7,32,letter_12,false_font_07,non-target,false_font,right,false_font_13,1,1.66666666666667,0.116,1.116,offset,1000,183,2493.44544987673,NaN,0,cr,2,2494.561538,1000,1,2494.807737,1000,0,2494.45236717673,2495.45233851182,2497.1087937,NaN,NaN,0,NaN,0.246199000000161
SX103,prp,0,7,33,letter_12,false_font_07,irrelevant,object,right,object_18,0.5,1.01388888888889,0.466,0.966,offset,1000,248,2497.11895561629,NaN,0,cr,2,2498.085028,1000,1,2498.3281163,1000,0,2497.62588543941,2499.12584419539,2500.1295729,NaN,NaN,0,NaN,0.243088300000181
SX103,prp,0,7,34,letter_12,false_font_07,irrelevant,face,right,face_02,0.5,0.715277777777778,0.232,0.732,offset,1100,112,2500.13970811852,NaN,0,cr,1,2500.8719386,1100,1,2501.3037853,1100,0,2500.64663396031,2502.14659585807,2502.8516719,NaN,NaN,0,NaN,0.431846700000278
SX103,prp,0,7,35,letter_12,false_font_07,irrelevant,object,right,object_11,1.5,1.03472222222222,0.466,1.966,offset,1000,241,2502.86185445584,NaN,0,cr,2,2504.8280029,1000,1,2505.2801439,1000,0,2504.36875165807,2504.8687367812,2505.8931383,NaN,NaN,0,NaN,0.452141000000211
SX103,prp,0,8,2,letter_10,false_font_17,irrelevant,object,center,object_08,1.5,1.09722222222222,0.232,0.232,onset,1100,198,2516.64618619763,NaN,0,cr,1,2516.8784068,1100,1,2517.4002777,1100,0,2518.15308826031,2518.65307671852,2519.7399819,NaN,NaN,0,NaN,0.521870900000067
SX103,prp,0,8,3,letter_10,false_font_17,irrelevant,face,right,face_16,1.5,0.729166666666667,0.116,1.616,offset,1100,126,2519.75027067673,NaN,0,cr,1,2521.3663464,1000,0,2522.0319937,1000,0,2521.25716805807,2521.75715243941,2522.4760276,NaN,NaN,0,NaN,0.665647299999819
SX103,prp,0,8,4,letter_10,false_font_17,non-target,letter,center,letter_18,1.5,1.39583333333333,0.466,0.466,onset,1000,28,2522.48630511852,NaN,0,cr,2,2522.9525439,1000,1,2523.6002448,1000,0,2523.99320789539,2524.49319215807,2525.8788886,NaN,NaN,0,NaN,0.647700900000018
SX103,prp,0,8,6,letter_10,false_font_17,non-target,false_font,center,false_font_18,1.5,1.49305555555556,0.232,0.232,onset,1100,148,2529.40277389763,2530.0637463,1,fa,1,2529.6349441,1100,1,2530.8077675,1,1100,2530.90273309986,2531.40271933271,2532.8923666,NaN,NaN,0,0.660972402374227,1.17282339999974
SX103,prp,0,8,8,letter_10,false_font_17,non-target,letter,right,letter_18,1.5,1.00694444444444,0.116,0.116,onset,1100,68,2535.74287251852,NaN,0,cr,1,2535.8589662,1100,1,2536.5362397,1100,0,2537.24977627897,2537.74976469763,2538.7464233,NaN,NaN,0,NaN,0.677273499999956
SX103,prp,0,8,9,letter_10,false_font_17,non-target,false_font,center,false_font_13,1,0.944444444444444,0,0,onset,1100,143,2538.75668334914,NaN,0,cr,1,2538.7575855,1100,1,2539.5197454,1100,0,2539.76359609763,2540.76356547673,2541.6977199,NaN,NaN,0,NaN,0.762159899999915
SX103,prp,0,8,10,letter_10,false_font_17,non-target,false_font,left,false_font_02,1,1.20138888888889,0,0,onset,1000,152,2541.70798715807,NaN,0,cr,2,2541.7090144,1000,1,2542.4717594,1000,0,2542.71489955807,2543.71487261852,2544.9060401,NaN,NaN,0,NaN,0.762744999999995
SX103,prp,0,8,11,letter_10,false_font_17,irrelevant,object,right,object_04,0.5,1.0625,0.466,0.966,offset,1000,234,2544.91622577897,NaN,0,cr,2,2545.8824081,1000,1,2546.1363023,1000,0,2545.42315837897,2546.92312011852,2547.9754626,NaN,NaN,0,NaN,0.253894200000104
SX103,prp,0,8,12,letter_10,false_font_17,non-target,letter,left,letter_04,1.5,0.965277777777778,0.466,1.966,offset,1100,34,2547.98558697673,NaN,0,cr,1,2549.9516422,1100,1,2550.2877988,1100,0,2549.49249189763,2549.99247556254,2550.9475384,NaN,NaN,0,NaN,0.336156599999867
SX103,prp,0,8,13,letter_10,false_font_17,irrelevant,object,right,object_19,0.5,1.84722222222222,0.466,0.466,onset,1100,249,2550.95772973718,NaN,0,cr,1,2551.4239381,1100,1,2551.7922997,1100,0,2551.46465339986,2552.96461785584,2554.8015994,NaN,NaN,0,NaN,0.368361599999844
SX103,prp,0,8,14,letter_10,false_font_17,non-target,false_font,left,false_font_14,0.5,0.784722222222222,0,0.5,offset,1100,164,2554.81178811629,NaN,0,cr,1,2555.319849,1100,1,2555.7678163,1100,0,2555.31871796031,2556.81867701629,2557.5930712,NaN,NaN,0,NaN,0.447967300000073
SX103,prp,0,8,15,letter_10,false_font_17,irrelevant,face,right,face_09,1,1.02777777777778,0,1,offset,1000,119,2557.60337361852,NaN,0,cr,2,2558.6112679,1000,1,2559.015826,1000,0,2558.61029138869,2559.61025975807,2560.6277446,NaN,NaN,0,NaN,0.404558100000031
SX103,prp,0,8,17,letter_10,false_font_17,non-target,false_font,left,false_font_09,0.5,0.708333333333333,0.232,0.732,offset,1100,159,2564.11708269763,NaN,0,cr,1,2564.8492731,1100,1,2565.7443248,1100,0,2564.62401079763,2566.12398192075,2566.8221471,NaN,NaN,0,NaN,0.89505169999984
SX103,prp,0,8,18,letter_10,false_font_17,irrelevant,object,center,object_19,1,1.63888888888889,0.116,1.116,offset,1100,209,2566.83228355807,NaN,0,cr,1,2567.9485215,1100,1,2568.7921381,1100,0,2567.8392021469,2568.83917269539,2570.467844,NaN,NaN,0,NaN,0.843616600000132
SX103,prp,0,8,19,letter_10,false_font_17,irrelevant,face,right,face_11,1.5,0.875,0,1.5,offset,1000,121,2570.47801241629,NaN,0,cr,2,2571.9860557,1000,1,2572.4163872,1000,0,2571.98491389986,2572.48490445807,2573.3497793,NaN,NaN,0,NaN,0.430331499999738
SX103,prp,0,8,20,letter_10,false_font_17,irrelevant,object,right,object_08,1.5,0.777777777777778,0.116,1.616,offset,1000,238,2573.35988490735,NaN,0,cr,2,2574.9759319,1000,1,2575.2322805,1000,0,2574.86678570958,2575.36676733271,2576.1342704,NaN,NaN,0,NaN,0.25634859999991
SX103,prp,0,8,21,letter_10,false_font_17,non-target,letter,right,letter_02,1,1.04861111111111,0.116,1.116,offset,1000,52,2576.14452077897,NaN,0,cr,2,2577.2607709,1000,1,2577.5361562,1000,0,2577.15143570209,2578.15143856031,2579.1897287,NaN,NaN,0,NaN,0.275385299999925
SX103,prp,0,8,22,letter_10,false_font_17,irrelevant,face,left,face_07,0.5,1.59027777777778,0.466,0.466,onset,1000,97,2579.19999539763,NaN,0,cr,2,2579.6661283,1000,1,2579.9123645,1000,0,2579.70692665807,2581.20687806031,2582.7869089,NaN,NaN,0,NaN,0.246236200000112
SX103,prp,0,8,23,letter_10,false_font_17,non-target,letter,center,letter_07,0.5,1.86111111111111,0.466,0.466,onset,1100,17,2582.79711529763,NaN,0,cr,1,2583.2633259,1100,1,2583.760467,1100,0,2583.30404835807,2584.80400585807,2586.6548006,NaN,NaN,0,NaN,0.497141100000135
SX103,prp,0,8,24,letter_10,false_font_17,non-target,false_font,center,false_font_09,1,0.805555555555555,0.466,0.466,onset,1100,139,2586.66506421852,2587.8159243,1,fa,1,2587.131318,1100,1,2588.6322881,1,1100,2587.67198187897,2588.66501029316,2589.4671579,NaN,NaN,0,1.15086008148137,1.5009700999999
SX103,prp,0,8,25,letter_10,false_font_17,irrelevant,object,center,object_09,1.5,1.54861111111111,0.466,0.466,onset,1000,199,2589.47748467673,NaN,0,cr,2,2589.9437202,1000,1,2590.2403007,1000,0,2590.98438641852,2591.48437351852,2593.0227761,NaN,NaN,0,NaN,0.296580499999891
SX103,prp,0,8,26,letter_10,false_font_17,irrelevant,object,right,object_14,1.5,0.75,0.466,1.966,offset,1000,244,2593.03294287673,NaN,0,cr,2,2594.9989899,1000,1,2595.32045,1000,0,2594.53984645584,2595.03983219763,2595.7796987,NaN,NaN,0,NaN,0.321460099999967
SX103,prp,0,8,27,letter_10,false_font_17,non-target,false_font,left,false_font_15,1,1.4375,0.232,0.232,onset,1100,165,2595.78980731852,NaN,0,cr,1,2596.0218574,1100,1,2596.6398763,1100,0,2596.79672658869,2597.79670027673,2599.2239474,NaN,NaN,0,NaN,0.618018900000152
SX103,prp,0,8,28,letter_10,false_font_17,non-target,false_font,center,false_font_13,0.5,0.833333333333333,0.466,0.966,offset,1000,143,2599.23415907897,NaN,0,cr,2,2600.2004114,1000,1,2600.4478377,1000,0,2599.74108671852,2601.24104851629,2602.0641982,NaN,NaN,0,NaN,0.247426299999915
SX103,prp,0,8,29,letter_10,false_font_17,non-target,letter,right,letter_04,1.5,0.736111111111111,0.116,1.616,offset,1000,54,2602.07435849539,NaN,0,cr,2,2603.6904079,1000,1,2604.3684884,1000,0,2603.58125743718,2604.08124591852,2604.8071815,NaN,NaN,0,NaN,0.678080499999851
SX103,prp,0,8,30,letter_10,false_font_17,irrelevant,face,left,face_14,1.5,0.833333333333333,0.116,1.616,offset,1000,104,2604.81733541852,NaN,0,cr,2,2606.4334832,1000,1,2606.7119053,1000,0,2606.32423505807,2606.82422017897,2607.647295,NaN,NaN,0,NaN,0.278422100000171
SX103,prp,0,8,31,letter_10,false_font_17,non-target,letter,left,letter_15,1.5,1.17361111111111,0.232,1.732,offset,1100,45,2607.65753051852,2610.6079157,1,fa,1,2609.3897973,1100,1,2610.1288059,1100,1,2609.16443441852,2609.66442102299,2610.8276847,NaN,NaN,0,2.95038518148112,0.739008600000034
SX103,prp,0,8,33,letter_10,false_font_17,irrelevant,object,right,object_20,1,1.70833333333333,0.466,1.466,offset,1000,250,2614.51150570209,NaN,0,cr,2,2615.9777147,1000,1,2616.5758452,1000,0,2615.51842323941,2616.51839887673,2618.2165667,NaN,NaN,0,NaN,0.598130500000025
SX103,prp,0,8,34,letter_10,false_font_17,irrelevant,face,left,face_14,0.5,1.125,0.116,0.616,offset,1000,104,2618.22668001852,NaN,0,cr,2,2618.8428282,1000,1,2619.0964441,1000,0,2618.73361585584,2620.23356786254,2621.348436,NaN,NaN,0,NaN,0.253615900000113
SX103,prp,0,8,35,letter_10,false_font_17,non-target,false_font,left,false_font_04,1.5,1.59722222222222,0,1.5,offset,1000,154,2621.35853855807,NaN,0,cr,2,2622.8665346,1000,1,2623.3682867,1000,0,2622.86544107673,2623.36542925807,2624.952329,NaN,NaN,0,NaN,0.501752100000431
SX103,prp,0,8,37,letter_10,false_font_17,irrelevant,face,right,face_06,0.5,1.36805555555556,0,0,onset,1000,116,2627.90002561852,NaN,0,cr,2,2627.901055,1000,1,2628.4081,1000,0,2628.40695453941,2629.90691389763,2631.2646701,NaN,NaN,0,NaN,0.507045000000289
SX103,prp,0,8,38,letter_10,false_font_17,irrelevant,face,center,face_16,1.5,0.833333333333333,0.232,0.232,onset,1100,86,2631.27492887673,NaN,0,cr,1,2631.5070083,1100,1,2632.0004371,1100,0,2632.78183265584,2633.28181447897,2634.104853,NaN,NaN,0,NaN,0.493428799999947
SX103,prp,0,9,1,letter_07,false_font_13,non-target,false_font,left,false_font_16,1.5,1.16666666666667,0.232,0.232,onset,1000,166,2649.52441969539,NaN,0,cr,2,2649.7565525,1000,1,2651.7925296,1000,0,2651.03132171852,2651.53130617897,2652.6876929,NaN,NaN,2643.86486043941,NaN,2.03597709999985
SX103,prp,0,9,2,letter_07,false_font_13,non-target,false_font,center,false_font_05,0.5,1.00694444444444,0.232,0.232,onset,1000,135,2652.69793715807,NaN,0,cr,2,2652.9300683,1000,1,2653.4165502,1000,0,2653.20486721852,2654.70482586031,2655.701493,NaN,NaN,0,NaN,0.486481899999944
SX103,prp,0,9,4,letter_07,false_font_13,irrelevant,face,right,face_11,0.5,0.770833333333333,0.116,0.616,offset,1000,121,2658.94081991852,NaN,0,cr,2,2659.5569463,1000,1,2659.8164477,1000,0,2659.44774751852,2660.94771063718,2661.7082982,NaN,NaN,0,NaN,0.259501399999863
SX103,prp,0,9,5,letter_07,false_font_13,irrelevant,face,left,face_08,1.5,1.11111111111111,0,1.5,offset,1100,98,2661.71852221852,NaN,0,cr,1,2663.2265384,1100,1,2663.7365902,1100,0,2663.22542171852,2663.72540417897,2664.8262321,NaN,NaN,0,NaN,0.510051799999928
SX103,prp,0,9,7,letter_07,false_font_13,irrelevant,face,center,face_02,0.5,1.1875,0,0.5,offset,1100,72,2667.89890229986,NaN,0,cr,1,2668.406984,1100,1,2668.8085293,1100,0,2668.40582895807,2669.90579151852,2671.0829583,NaN,NaN,0,NaN,0.401545299999725
SX103,prp,0,9,8,letter_07,false_font_13,irrelevant,face,center,face_12,0.5,1.75694444444444,0.116,0.616,offset,1000,82,2671.09325451852,NaN,0,cr,2,2671.7093695,1000,1,2672.1919506,1000,0,2671.60018695807,2673.10014417897,2674.8468327,NaN,NaN,0,NaN,0.482581100000061
SX103,prp,0,9,9,letter_07,false_font_13,non-target,letter,center,letter_20,0.5,1.00694444444444,0.116,0.116,onset,1000,30,2674.85704135807,NaN,0,cr,2,2674.973169,1000,1,2675.8399371,1000,0,2675.36397191852,2676.86392931852,2677.8607074,NaN,NaN,0,NaN,0.866768100000172
SX103,prp,0,9,10,letter_07,false_font_13,non-target,letter,center,letter_02,1,1.11805555555556,0,0,onset,1000,12,2677.8708440678,NaN,0,cr,2,2677.8717192,1000,1,2678.5039725,1000,0,2678.87776170958,2679.87773618869,2680.9855428,NaN,NaN,0,NaN,0.63225330000023
SX103,prp,0,9,11,letter_07,false_font_13,non-target,false_font,right,false_font_15,1,1.49305555555556,0.466,1.466,offset,1000,185,2680.99575917897,NaN,0,cr,2,2682.4619313,1100,0,2682.9919387,1100,0,2682.00267318869,2683.00264600958,2684.4854664,NaN,NaN,0,NaN,0.530007400000159
SX103,prp,0,9,12,letter_07,false_font_13,irrelevant,face,left,face_18,0.5,1.29861111111111,0,0.5,offset,1100,108,2684.49565813941,NaN,0,cr,1,2685.0037168,1100,1,2685.5923694,1100,0,2685.00258876031,2686.50254691852,2687.7908453,NaN,NaN,0,NaN,0.588652599999932
SX103,prp,0,9,13,letter_07,false_font_13,non-target,false_font,center,false_font_04,1.5,1.55555555555556,0.232,0.232,onset,1000,134,2687.80112425807,2688.4883631,1,fa,2,2688.0332076,1000,1,2689.0645404,1,1000,2689.30108033495,2689.80106415137,2691.3532163,NaN,NaN,0,0.68723884192741,1.0313328000002
SX103,prp,0,9,14,letter_07,false_font_13,irrelevant,object,left,object_18,1,1.35416666666667,0.466,1.466,offset,1100,228,2691.36351983941,NaN,0,cr,1,2692.829761,1100,1,2693.3205281,1100,0,2692.37043949986,2693.37040875584,2694.7142399,NaN,NaN,0,NaN,0.490767100000085
SX103,prp,0,9,15,letter_07,false_font_13,non-target,letter,left,letter_11,1,1.66666666666667,0.466,1.466,offset,1000,41,2694.72453779763,NaN,0,cr,2,2696.1906548,1000,1,2696.816292,1000,0,2695.73146111852,2696.73143204388,2698.3877945,NaN,NaN,0,NaN,0.625637199999801
SX103,prp,0,9,16,letter_07,false_font_13,irrelevant,face,center,face_05,1.5,0.854166666666667,0.466,0.466,onset,1100,75,2698.39804887673,NaN,0,cr,1,2698.8641053,1100,1,2699.3604743,1100,0,2699.90495039986,2700.40493889763,2701.2488168,NaN,NaN,0,NaN,0.496368999999959
SX103,prp,0,9,17,letter_07,false_font_13,irrelevant,object,left,object_20,0.5,1.20138888888889,0.232,0.232,onset,1100,230,2701.25908123718,NaN,0,cr,1,2701.4911341,1100,1,2702.1445823,1100,0,2701.76601091852,2703.26596515807,2704.4570653,NaN,NaN,0,NaN,0.65344819999973
SX103,prp,0,9,18,letter_07,false_font_13,irrelevant,face,left,face_10,1,0.770833333333333,0,1,offset,1100,100,2704.46731933941,NaN,0,cr,1,2705.4753887,1100,1,2705.9684946,1100,0,2705.47423912075,2706.47420811852,2707.2348166,NaN,NaN,0,NaN,0.493105900000046
SX103,prp,0,9,19,letter_07,false_font_13,irrelevant,face,right,face_03,1,0.770833333333333,0.232,0.232,onset,1100,113,2707.24502493941,NaN,0,cr,1,2707.4772585,1100,1,2707.8400173,1100,0,2708.25193823495,2709.25191287003,2710.0125162,NaN,NaN,0,NaN,0.362758799999938
SX103,prp,0,9,20,letter_07,false_font_13,irrelevant,face,right,face_12,0.5,1.18055555555556,0.116,0.616,offset,1000,122,2710.02272177897,NaN,0,cr,2,2710.6389136,1000,1,2711.1203519,1000,0,2710.52965519763,2712.02961065807,2713.1999976,NaN,NaN,0,NaN,0.481438300000264
SX103,prp,0,9,21,letter_07,false_font_13,non-target,letter,center,letter_10,0.5,0.854166666666667,0.466,0.466,onset,1100,20,2713.21013203495,NaN,0,cr,1,2713.6762625,1100,1,2714.2566105,1100,0,2713.71706297897,2715.21702351629,2716.0609605,NaN,NaN,0,NaN,0.580347999999958
SX103,prp,0,9,22,letter_07,false_font_13,non-target,letter,left,letter_16,1.5,1.29861111111111,0.232,0.232,onset,1000,46,2716.07116385807,NaN,0,cr,2,2716.3033678,1000,1,2716.7043967,1000,0,2717.57806891852,2718.07805195807,2719.3664062,NaN,NaN,0,NaN,0.401028899999801
SX103,prp,0,9,23,letter_07,false_font_13,non-target,false_font,center,false_font_16,1,0.826388888888889,0.116,0.116,onset,1000,146,2719.37662633495,NaN,0,cr,2,2719.4927258,1000,1,2720.9766439,1000,0,2720.38354387897,2721.38351543718,2722.1996633,NaN,NaN,0,NaN,1.48391810000021
SX103,prp,0,9,24,letter_07,false_font_13,irrelevant,object,center,object_09,0.5,1.24305555555556,0.466,0.966,offset,1000,199,2722.20988143941,NaN,0,cr,2,2723.1760069,1000,1,2723.7282772,1000,0,2722.71681155807,2724.21677479539,2725.4494957,NaN,NaN,0,NaN,0.552270299999691
SX103,prp,0,9,25,letter_07,false_font_13,irrelevant,object,center,object_11,1.5,1.15277777777778,0.232,1.732,offset,1100,201,2725.45979459763,NaN,0,cr,1,2727.1919286,1100,1,2727.7685195,1100,0,2726.96669321629,2727.46667949763,2728.6092281,NaN,NaN,0,NaN,0.576590899999701
SX103,prp,0,9,26,letter_07,false_font_13,non-target,letter,right,letter_03,0.5,1.63194444444444,0.466,0.466,onset,1100,53,2728.61942906031,NaN,0,cr,1,2729.0856262,1100,1,2729.6085247,1100,0,2729.12635647673,2730.62631323718,2732.2480763,NaN,NaN,0,NaN,0.522898499999883
SX103,prp,0,9,27,letter_07,false_font_13,non-target,letter,center,letter_09,1.5,0.944444444444444,0.232,0.232,onset,1100,19,2732.25821285584,NaN,0,cr,1,2732.4904134,1100,1,2732.9766525,1100,0,2733.76511611852,2734.26510015807,2735.1992002,NaN,NaN,0,NaN,0.486239100000148
SX103,prp,0,9,28,letter_07,false_font_13,irrelevant,face,left,face_14,1,0.951388888888889,0.116,0.116,onset,1000,104,2735.20952217897,NaN,0,cr,2,2735.3258565,1000,1,2735.7125259,1000,0,2736.21643804914,2737.21641038869,2738.1575331,NaN,NaN,0,NaN,0.386669399999846
SX103,prp,0,9,29,letter_07,false_font_13,non-target,false_font,left,false_font_01,1.5,0.819444444444444,0,0,onset,1000,151,2738.16777171852,NaN,0,cr,2,2738.168807,1000,1,2738.712056,1000,0,2739.67467437897,2740.17466053718,2740.9837684,NaN,NaN,0,NaN,0.543248999999832
SX103,prp,0,9,30,letter_07,false_font_13,non-target,letter,right,letter_04,1,1.64583333333333,0.466,0.466,onset,1000,54,2740.99407783941,NaN,0,cr,2,2741.4603141,1000,1,2741.7599929,1000,0,2742.00099625807,2743.00096685807,2744.6365015,NaN,NaN,0,NaN,0.299678800000038
SX103,prp,0,9,31,letter_07,false_font_13,irrelevant,face,center,face_04,0.5,1.02083333333333,0.116,0.116,onset,1000,74,2744.64675597897,NaN,0,cr,2,2744.7629133,1000,1,2745.1604938,1000,0,2745.15368549763,2746.65364563941,2747.6641602,NaN,NaN,0,NaN,0.397580500000004
SX103,prp,0,9,32,letter_07,false_font_13,irrelevant,object,right,object_02,1.5,1.24305555555556,0,1.5,offset,1000,232,2747.67444889986,NaN,0,cr,2,2749.1824304,1000,1,2749.5204696,1000,0,2749.18135319539,2749.68133661405,2750.9140718,NaN,NaN,0,NaN,0.338039199999912
SX103,prp,0,9,33,letter_07,false_font_13,non-target,letter,left,letter_13,1,1.01388888888889,0.116,0.116,onset,1100,43,2750.92436081852,NaN,0,cr,1,2751.0406055,1000,0,2751.5040475,1000,0,2751.93128072824,2752.93124739763,2753.9349983,NaN,NaN,0,NaN,0.463442000000214
SX103,prp,0,9,34,letter_07,false_font_13,non-target,letter,center,letter_01,1,1.21527777777778,0.466,0.466,onset,1000,11,2753.94510807897,NaN,0,cr,2,2754.4111923,1000,1,2754.8400628,1000,0,2754.95202558869,2755.95199688869,2757.1570197,NaN,NaN,0,NaN,0.428870499999903
SX103,prp,0,10,1,letter_08,false_font_06,non-target,letter,center,letter_11,1.5,1.55555555555556,0.466,1.966,offset,1000,21,2764.87535790209,NaN,0,cr,2,2766.8414101,1000,1,2767.480471,1000,0,2766.38226231852,2766.88224979763,2768.4276349,NaN,NaN,2758.65331120958,NaN,0.639060900000004
SX103,prp,0,10,2,letter_08,false_font_06,irrelevant,face,right,face_15,1,1.9375,0.116,0.116,onset,1100,125,2768.43776131852,NaN,0,cr,1,2768.5539283,1100,1,2769.0885512,1100,0,2769.44467589092,2770.44464963718,2772.3719564,NaN,NaN,0,NaN,0.534622900000159
SX103,prp,0,10,3,letter_08,false_font_06,irrelevant,face,right,face_07,1.5,1.04166666666667,0.466,1.966,offset,1000,117,2772.38209709763,NaN,0,cr,2,2774.3482424,1000,1,2774.7285065,1000,0,2773.88899631852,2774.38898055807,2775.4203577,NaN,NaN,0,NaN,0.380264100000204
SX103,prp,0,10,4,letter_08,false_font_06,non-target,false_font,center,false_font_16,0.5,0.743055555555555,0.466,0.966,offset,1100,146,2775.43061765584,NaN,0,cr,1,2776.3967487,1100,1,2776.864702,1100,0,2775.93754715807,2777.43750585807,2778.1702615,NaN,NaN,0,NaN,0.467953299999863
SX103,prp,0,10,5,letter_08,false_font_06,non-target,false_font,right,false_font_16,0.5,1.81944444444444,0.232,0.732,offset,1100,186,2778.18054101852,NaN,0,cr,1,2778.9127848,1100,1,2779.320594,1100,0,2778.68747419763,2780.18743199763,2781.9965468,NaN,NaN,0,NaN,0.407809199999974
SX103,prp,0,10,6,letter_08,false_font_06,irrelevant,face,center,face_13,0.5,0.8125,0.466,0.466,onset,1000,83,2782.00682481852,NaN,0,cr,2,2782.4728873,1000,1,2782.8722883,1000,0,2782.51375591629,2784.01371307897,2784.8159962,NaN,NaN,0,NaN,0.399401000000125
SX103,prp,0,10,7,letter_08,false_font_06,irrelevant,object,center,object_18,0.5,1.22916666666667,0.466,0.466,onset,1000,208,2784.82618899763,NaN,0,cr,2,2785.2923783,1000,1,2785.7843912,1000,0,2785.33312347673,2786.83307607673,2788.052085,NaN,NaN,0,NaN,0.492012899999736
SX103,prp,0,10,8,letter_08,false_font_06,irrelevant,object,center,object_12,1.5,0.868055555555555,0.466,0.466,onset,1100,202,2788.06220773941,NaN,0,cr,1,2788.5284278,1100,1,2788.9686096,1100,0,2789.56910907897,2790.06909939763,2790.926849,NaN,NaN,0,NaN,0.440181800000119
SX103,prp,0,10,9,letter_08,false_font_06,irrelevant,face,right,face_19,1,0.979166666666667,0,0,onset,1100,129,2790.93712450656,NaN,0,cr,1,2790.9382865,1100,1,2791.4886568,1100,0,2791.9440456678,2792.94402021629,2793.9129826,NaN,NaN,0,NaN,0.550370300000395
SX103,prp,0,10,10,letter_08,false_font_06,non-target,letter,right,letter_07,0.5,1.51388888888889,0.116,0.116,onset,1000,57,2793.92315857673,NaN,0,cr,2,2794.0393692,1000,1,2795.0245204,1000,0,2794.43008693718,2795.93004315807,2797.4337341,NaN,NaN,0,NaN,0.985151200000018
SX103,prp,0,10,11,letter_08,false_font_06,non-target,letter,center,letter_10,1.5,0.826388888888889,0.232,1.732,offset,1000,20,2797.44389191852,NaN,0,cr,2,2799.1760747,1000,1,2800.0325284,1000,0,2798.95079551852,2799.45078037673,2800.2668991,NaN,NaN,0,NaN,0.856453700000202
SX103,prp,0,10,13,letter_08,false_font_06,non-target,false_font,left,false_font_18,1.5,1.65972222222222,0.466,0.466,onset,1000,168,2803.24928257897,NaN,0,cr,2,2803.7153629,1000,1,2804.2885308,1000,0,2804.75618631852,2805.25617225807,2806.9057249,NaN,NaN,0,NaN,0.573167900000044
SX103,prp,0,10,14,letter_08,false_font_06,irrelevant,object,center,object_03,1.5,0.916666666666667,0.466,1.966,offset,1000,193,2806.91585151629,NaN,0,cr,2,2808.8820206,1000,1,2809.3844652,1000,0,2808.42275359539,2808.92273373941,2809.8292305,NaN,NaN,0,NaN,0.502444599999762
SX103,prp,0,10,15,letter_08,false_font_06,non-target,letter,right,letter_18,1,0.791666666666667,0.232,0.232,onset,1100,68,2809.83937765807,NaN,0,cr,1,2810.0715505,1100,1,2810.5928443,1100,0,2810.84629267897,2811.84626279539,2812.6275898,NaN,NaN,0,NaN,0.521293799999967
SX103,prp,0,10,16,letter_08,false_font_06,irrelevant,face,left,face_13,0.5,0.895833333333333,0.232,0.732,offset,1000,103,2812.63790807897,NaN,0,cr,2,2813.3700222,1000,1,2813.8241327,1000,0,2813.14483534165,2814.64479501852,2815.5304303,NaN,NaN,0,NaN,0.454110499999842
SX103,prp,0,10,17,letter_08,false_font_06,non-target,letter,center,letter_03,1,1.59722222222222,0.466,1.466,offset,1100,13,2815.54060247897,NaN,0,cr,1,2817.0068187,1100,1,2817.5367502,1100,0,2816.54752092824,2817.54749117897,2819.1343792,NaN,NaN,0,NaN,0.529931499999748
SX103,prp,0,10,18,letter_08,false_font_06,non-target,letter,center,letter_20,0.5,1.38194444444444,0.232,0.232,onset,1000,30,2819.14467193718,NaN,0,cr,2,2819.3768255,1000,1,2819.6966493,1000,0,2819.6516347812,2821.15156061852,2822.5233475,NaN,NaN,0,NaN,0.319823799999995
SX103,prp,0,10,19,letter_08,false_font_06,non-target,letter,right,letter_03,1,0.701388888888889,0.232,1.232,offset,1100,53,2822.53346527673,NaN,0,cr,1,2823.7655388,1100,1,2824.3281233,1100,0,2823.54038158869,2824.54034967897,2825.2315165,NaN,NaN,0,NaN,0.562584499999957
SX103,prp,0,10,20,letter_08,false_font_06,irrelevant,object,left,object_05,1,1.09027777777778,0.116,0.116,onset,1000,215,2825.24172131852,NaN,0,cr,2,2825.3578396,1000,1,2825.8246585,1000,0,2826.24863629316,2827.24860597897,2828.3287011,NaN,NaN,0,NaN,0.466818900000362
SX103,prp,0,10,22,letter_08,false_font_06,irrelevant,face,left,face_06,1,1.22916666666667,0.116,1.116,offset,1100,96,2831.86653695584,NaN,0,cr,1,2832.9827027,1100,1,2833.6724927,1100,0,2832.87345600735,2833.87342544914,2835.0924154,NaN,NaN,0,NaN,0.689789999999903
SX103,prp,0,10,23,letter_08,false_font_06,irrelevant,face,center,face_01,0.5,1.5,0,0,onset,1000,71,2835.10255423718,NaN,0,cr,2,2835.1035682,1000,1,2835.5361201,1000,0,2835.60948507897,2837.10944583941,2838.5992573,NaN,NaN,0,NaN,0.432551899999908
SX103,prp,0,10,24,letter_08,false_font_06,non-target,false_font,right,false_font_19,1.5,1.3125,0.466,1.966,offset,1000,189,2838.60940301405,NaN,0,cr,2,2840.5755308,1000,1,2840.9368146,1000,0,2840.11630211852,2840.61629005807,2841.9184512,NaN,NaN,0,NaN,0.361283800000365
SX103,prp,0,10,25,letter_08,false_font_06,non-target,letter,left,letter_06,1,1.10416666666667,0.466,0.466,onset,1100,36,2841.92875417673,NaN,0,cr,1,2842.3949612,1100,1,2843.2641993,1100,0,2842.93566962601,2843.93568467897,2845.029632,NaN,NaN,0,NaN,0.869238100000075
SX103,prp,0,10,26,letter_08,false_font_06,irrelevant,object,center,object_03,1,0.736111111111111,0,1,offset,1000,193,2845.03977835807,NaN,0,cr,2,2846.0477724,1000,1,2846.3847947,1000,0,2846.04669061629,2847.04666209986,2847.7726412,NaN,NaN,0,NaN,0.337022299999717
SX103,prp,0,10,27,letter_08,false_font_06,non-target,letter,center,letter_16,1,0.791666666666667,0.232,1.232,offset,1000,26,2847.78275069986,NaN,0,cr,2,2849.0148244,1000,1,2849.3927411,1000,0,2848.78967263718,2849.78964469763,2850.5709687,NaN,NaN,0,NaN,0.377916699999787
SX103,prp,0,10,28,letter_08,false_font_06,irrelevant,object,left,object_15,1.5,1.55555555555556,0,1.5,offset,1100,225,2850.58128933718,NaN,0,cr,1,2852.0893178,1100,1,2852.648587,1100,0,2852.08818917897,2852.58817441852,2854.1334523,NaN,NaN,0,NaN,0.559269200000017
SX103,prp,0,10,29,letter_08,false_font_06,irrelevant,object,right,object_09,0.5,1.8125,0.466,0.966,offset,1100,239,2854.14368799986,NaN,0,cr,1,2855.1097746,1100,1,2855.5367663,1100,0,2854.65061833718,2856.15057503941,2857.9527437,NaN,NaN,0,NaN,0.426991700000144
SX103,prp,0,10,30,letter_08,false_font_06,non-target,false_font,center,false_font_03,1.5,1.53472222222222,0.466,0.466,onset,1000,133,2857.96302223495,NaN,0,cr,2,2858.4292163,1000,1,2858.7047003,1000,0,2859.46992579763,2859.96991213718,2861.4944228,NaN,NaN,0,NaN,0.275483999999778
SX103,prp,0,10,32,letter_08,false_font_06,irrelevant,object,center,object_07,1,1.59027777777778,0.116,0.116,onset,1100,197,2864.81005323941,NaN,0,cr,1,2864.9263071,1100,1,2865.4646676,1100,0,2865.81697148869,2866.81693805807,2868.3970347,NaN,NaN,0,NaN,0.538360500000181
SX103,prp,0,10,33,letter_08,false_font_06,irrelevant,face,center,face_15,1.5,1.10416666666667,0.116,1.616,offset,1100,85,2868.40717441629,NaN,0,cr,1,2870.0232341,1100,1,2870.4805714,1100,0,2869.91407249763,2870.41405907897,2871.5079341,NaN,NaN,0,NaN,0.457337299999836
SX103,prp,0,10,34,letter_08,false_font_06,non-target,letter,center,letter_19,1.5,1.42361111111111,0.116,1.616,offset,1100,29,2871.51819675807,NaN,0,cr,1,2873.1343889,1100,1,2873.8326578,1100,0,2873.02509610209,2873.52508441852,2874.9383946,NaN,NaN,0,NaN,0.69826890000013
SX103,prp,0,10,35,letter_08,false_font_06,non-target,false_font,center,false_font_10,1.5,1.82638888888889,0.466,1.966,offset,1000,140,2874.94865867897,NaN,0,cr,2,2876.9149074,1000,1,2877.3281759,1000,0,2876.45555889763,2876.95554505807,2878.7716368,NaN,NaN,0,NaN,0.413268499999958
SX103,prp,0,11,1,face_14,object_11,irrelevant,letter,left,letter_17,1.5,0.840277777777778,0.116,1.616,offset,1100,47,2887.71913204165,NaN,0,cr,1,2889.3353149,1100,1,2889.8726703,1100,0,2889.22603237897,2889.72602185807,2890.5559512,NaN,NaN,2882.06651743495,NaN,0.537355400000251
SX103,prp,0,11,2,face_14,object_11,irrelevant,false_font,right,false_font_10,1,0.756944444444444,0.466,0.466,onset,1100,180,2890.56627909763,NaN,0,cr,1,2891.0324167,1100,1,2891.6247007,1100,0,2891.57319264914,2892.57316307897,2893.3198281,NaN,NaN,0,NaN,0.592284000000291
SX103,prp,0,11,3,face_14,object_11,non-target,face,right,face_11,1.5,0.791666666666667,0.466,1.966,offset,1100,121,2893.33008685584,NaN,0,cr,1,2895.296197,1100,1,2895.744498,1100,0,2894.83698903718,2895.33697719539,2896.1184908,NaN,NaN,0,NaN,0.448300999999901
SX103,prp,0,11,5,face_14,object_11,irrelevant,false_font,right,false_font_07,0.5,1.09722222222222,0,0,onset,1100,177,2899.17019970209,NaN,0,cr,1,2899.1713309,1100,1,2900.0082301,1100,0,2899.67713425807,2901.17709187897,2902.2641125,NaN,NaN,0,NaN,0.836899200000062
SX103,prp,0,11,6,face_14,object_11,irrelevant,false_font,left,false_font_05,1.5,1.03472222222222,0.466,0.466,onset,1000,155,2902.27428009763,NaN,0,cr,2,2902.7403716,1000,1,2903.2322876,1000,0,2903.78118221852,2904.28117265807,2905.3056506,NaN,NaN,0,NaN,0.491915999999947
SX103,prp,0,11,7,face_14,object_11,non-target,object,right,object_01,1,0.763888888888889,0,0,onset,1000,231,2905.31586313048,NaN,0,cr,2,2905.3168062,1000,1,2906.0885769,1000,0,2906.32277813271,2907.32275023048,2908.0764818,NaN,NaN,0,NaN,0.771770700000161
SX103,prp,0,11,8,face_14,object_11,non-target,object,left,object_14,1,1.04861111111111,0.232,0.232,onset,1000,224,2908.08662139763,NaN,0,cr,2,2908.3186551,1000,1,2908.7767151,1000,0,2909.09353950958,2910.09350851852,2911.1319055,NaN,NaN,0,NaN,0.458059999999932
SX103,prp,0,11,9,face_14,object_11,non-target,face,right,face_05,1.5,1.09722222222222,0.232,1.732,offset,1000,115,2911.14209229539,NaN,0,cr,2,2912.874135,1000,1,2913.4642718,1000,0,2912.64898971852,2913.14897663941,2914.2359471,NaN,NaN,0,NaN,0.590136799999982
SX103,prp,0,11,10,face_14,object_11,irrelevant,letter,right,letter_09,0.5,1.01388888888889,0.466,0.966,offset,1000,59,2914.24616599986,NaN,0,cr,2,2915.2123204,1000,1,2915.7528243,1000,0,2914.75310059986,2916.25310531852,2917.2566157,NaN,NaN,0,NaN,0.540503900000203
SX103,prp,0,11,11,face_14,object_11,non-target,face,center,face_10,0.5,0.756944444444444,0.232,0.232,onset,1100,80,2917.26692310735,NaN,0,cr,1,2917.4990893,1100,1,2918.0243017,1100,0,2917.77384777673,2919.2738073812,2920.0204126,NaN,NaN,0,NaN,0.525212399999873
SX103,prp,0,11,12,face_14,object_11,irrelevant,false_font,left,false_font_17,1,1.36111111111111,0.232,0.232,onset,1000,167,2920.03072645807,NaN,0,cr,2,2920.2627897,1000,1,2920.744249,1000,0,2921.03764842824,2922.03761621629,2923.3885589,NaN,NaN,0,NaN,0.481459299999642
SX103,prp,0,11,13,face_14,object_11,non-target,face,left,face_15,1,1.30555555555556,0.116,0.116,onset,1100,105,2923.39869055807,NaN,0,cr,1,2923.5149458,1100,1,2924.0968529,1100,0,2924.40560437673,2925.40557530209,2926.7009616,NaN,NaN,0,NaN,0.58190710000008
SX103,prp,0,11,14,face_14,object_11,non-target,object,right,object_09,1,0.708333333333333,0.116,1.116,offset,1000,239,2926.71109689763,NaN,0,cr,2,2927.8271803,1000,1,2928.2887027,1000,0,2927.71801207226,2928.71798491405,2929.4161396,NaN,NaN,0,NaN,0.461522400000376
SX103,prp,0,11,15,face_14,object_11,non-target,object,right,object_20,1,1.3125,0.466,1.466,offset,1100,250,2929.42629847673,NaN,0,cr,1,2930.8925245,1100,1,2931.3362654,1100,0,2930.43321427003,2931.43318899763,2932.7355093,NaN,NaN,0,NaN,0.443740899999739
SX103,prp,0,11,16,face_14,object_11,irrelevant,false_font,center,false_font_09,1,1.14583333333333,0,0,onset,1000,139,2932.74565311405,NaN,0,cr,2,2932.7466215,1000,1,2933.20825,1000,0,2933.75256802824,2934.75253743048,2935.8880785,NaN,NaN,0,NaN,0.461628500000188
SX103,prp,0,11,18,face_14,object_11,non-target,face,center,face_17,0.5,1.68055555555556,0,0,onset,1000,87,2939.80100885807,NaN,0,cr,2,2939.8020395,1000,1,2940.4646647,1000,0,2940.30793601852,2941.80789733941,2943.4781129,NaN,NaN,0,NaN,0.662625200000093
SX103,prp,0,11,19,face_14,object_11,non-target,face,center,face_03,0.5,1.375,0.466,0.466,onset,1100,73,2943.48840127673,NaN,0,cr,1,2943.954471,1100,1,2944.3766933,1100,0,2943.99533595807,2945.49529034165,2946.8600649,NaN,NaN,0,NaN,0.422222300000158
SX103,prp,0,11,20,face_14,object_11,irrelevant,false_font,right,false_font_18,1,0.763888888888889,0,0,onset,1100,188,2946.87025389763,NaN,0,cr,1,2946.8712783,1100,1,2947.5368361,1100,0,2947.87717134914,2948.87714114914,2949.6308535,NaN,NaN,0,NaN,0.665557799999988
SX103,prp,0,11,21,face_14,object_11,irrelevant,false_font,right,false_font_06,0.5,1.625,0,0.5,offset,1000,176,2949.64100761852,NaN,0,cr,2,2950.1490479,1000,1,2950.4562564,1000,0,2950.14793783941,2951.64789767673,2953.2626531,NaN,NaN,0,NaN,0.307208499999888
SX103,prp,0,11,22,face_14,object_11,irrelevant,false_font,center,false_font_11,1,0.979166666666667,0.116,0.116,onset,1100,141,2953.2728516536,NaN,0,cr,1,2953.3891074,1100,1,2953.9128008,1100,0,2954.27976447897,2955.27973771852,2956.2486324,NaN,NaN,0,NaN,0.523693399999956
SX103,prp,0,11,25,face_14,object_11,irrelevant,false_font,left,false_font_01,1.5,0.819444444444444,0.116,0.116,onset,1000,151,2962.14760117897,NaN,0,cr,2,2962.2637633,1000,1,2962.6888153,1000,0,2963.65450767897,2964.15449247897,2964.9636153,NaN,NaN,0,NaN,0.425052000000051
SX103,prp,0,11,26,face_14,object_11,non-target,face,center,face_06,1.5,1.09027777777778,0.466,1.966,offset,1000,76,2964.97391643718,NaN,0,cr,2,2966.940144,1000,1,2967.3603183,1000,0,2966.48081835807,2966.98080031852,2968.0608676,NaN,NaN,0,NaN,0.420174299999871
SX103,prp,0,11,27,face_14,object_11,irrelevant,false_font,right,false_font_10,0.5,1.07638888888889,0.116,0.616,offset,1000,180,2968.07105343718,NaN,0,cr,2,2968.68731,1000,1,2968.9683051,1000,0,2968.57798145584,2970.07793955807,2971.1441397,NaN,NaN,0,NaN,0.280995100000382
SX103,prp,0,11,28,face_14,object_11,non-target,face,right,face_20,1.5,1.59027777777778,0,0,onset,1000,130,2971.15429735584,NaN,0,cr,2,2971.15537,1000,1,2971.9449013,1000,0,2972.66120127897,2973.16118455807,2974.7411537,NaN,NaN,0,NaN,0.789531299999908
SX103,prp,0,11,29,face_14,object_11,irrelevant,letter,center,letter_02,1,1.02083333333333,0.466,0.466,onset,1100,12,2974.75141833941,NaN,0,cr,1,2975.2174573,1100,1,2975.6569177,1100,0,2975.75833543718,2976.75835845807,2977.7689919,NaN,NaN,0,NaN,0.439460399999916
SX103,prp,0,11,30,face_14,object_11,non-target,object,left,object_16,0.5,1.47916666666667,0.116,0.616,offset,1100,226,2977.77911964914,NaN,0,cr,1,2978.3952613,1100,1,2978.8085912,1100,0,2978.28604377897,2979.78600279763,2981.2549485,NaN,NaN,0,NaN,0.413329900000008
SX103,prp,0,11,31,face_14,object_11,irrelevant,letter,center,letter_11,1.5,1.09027777777778,0.232,0.232,onset,1100,21,2981.26513031852,NaN,0,cr,1,2981.4972962,1100,1,2981.9209416,1100,0,2982.77203277897,2983.27204869986,2984.3520719,NaN,NaN,0,NaN,0.423645399999714
SX103,prp,0,11,32,face_14,object_11,irrelevant,letter,right,letter_11,1,1.92361111111111,0,1,offset,1000,61,2984.36226509763,NaN,0,cr,2,2985.3702899,1000,1,2985.7127675,1000,0,2985.36918105807,2986.36915169763,2988.282438,NaN,NaN,0,NaN,0.342477600000166
SX103,prp,0,11,33,face_14,object_11,non-target,object,right,object_03,1.5,0.715277777777778,0.116,0.116,onset,1100,233,2988.29270895361,NaN,0,cr,1,2988.4088749,1100,1,2988.9367318,1100,0,2989.79961457897,2990.29964901852,2991.0045498,NaN,NaN,0,NaN,0.527856900000188
SX103,prp,0,11,34,face_14,object_11,irrelevant,false_font,center,false_font_04,1,0.951388888888889,0.116,0.116,onset,1100,134,2991.01486029763,NaN,0,cr,1,2991.1310941,1100,1,2991.560927,1100,0,2992.02177742824,2993.02174824914,2993.9628837,NaN,NaN,0,NaN,0.429832899999838
SX103,prp,0,11,35,face_14,object_11,non-target,face,right,face_19,0.5,1.40972222222222,0.232,0.232,onset,1100,129,2993.97310561852,NaN,0,cr,1,2994.2053613,1100,1,2995.3849232,1100,0,2994.48003875807,2995.97999863941,2997.3795157,NaN,NaN,0,NaN,1.17956189999995
SX103,prp,0,11,36,face_14,object_11,non-target,object,right,object_03,0.5,1.11111111111111,0.232,0.232,onset,1100,233,2997.38968023718,NaN,0,cr,1,2997.621878,1100,1,2998.0163234,1100,0,2997.89660851629,2999.39658609986,3000.4973684,NaN,NaN,0,NaN,0.394445400000222
SX103,prp,0,12,1,face_15,object_20,non-target,object,right,object_16,1,0.979166666666667,0,1,offset,1000,246,3010.45181855807,NaN,0,cr,2,3011.4597278,1000,1,3011.8408287,1000,0,3011.45873497003,3012.45870401629,3013.4276782,NaN,NaN,3002.97980132075,NaN,0.381100900000092
SX103,prp,0,12,3,face_15,object_20,irrelevant,false_font,right,false_font_14,0.5,1,0.116,0.616,offset,1100,184,3016.58358985807,NaN,0,cr,1,3017.1997833,1100,1,3017.6170974,1100,0,3017.09051869763,3018.59047965807,3019.5802499,NaN,NaN,0,NaN,0.417314100000112
SX103,prp,0,12,4,face_15,object_20,irrelevant,false_font,center,false_font_17,1.5,0.770833333333333,0.466,1.966,offset,1100,147,3019.5904524745,NaN,0,cr,1,3021.5564988,1100,1,3022.0329482,1100,0,3021.09735319763,3021.59733903718,3022.3578351,NaN,NaN,0,NaN,0.476449400000092
SX103,prp,0,12,5,face_15,object_20,non-target,object,center,object_14,1,1.63194444444444,0.232,0.232,onset,1000,204,3022.36815235807,NaN,0,cr,2,3022.6003609,1000,1,3023.0810037,1000,0,3023.37506752824,3024.37504280735,3025.9967807,NaN,NaN,0,NaN,0.480642800000169
SX103,prp,0,12,6,face_15,object_20,irrelevant,letter,center,letter_11,1,1.50694444444444,0.232,0.232,onset,1100,21,3026.00693719763,NaN,0,cr,1,3026.2392037,1100,1,3026.6646642,1100,0,3027.01385719763,3028.01382649539,3029.5105127,NaN,NaN,0,NaN,0.425460500000099
SX103,prp,0,12,7,face_15,object_20,non-target,object,center,object_10,0.5,0.881944444444444,0.232,0.732,offset,1100,200,3029.52072759763,NaN,0,cr,1,3030.2528713,1100,1,3030.560944,1100,0,3030.02765573941,3031.52761939539,3032.3992309,NaN,NaN,0,NaN,0.308072699999684
SX103,prp,0,12,8,face_15,object_20,non-target,face,right,face_03,1.5,1.16666666666667,0.232,1.732,offset,1100,113,3032.40953593718,NaN,0,cr,1,3034.1416197,1100,1,3034.4490577,1100,0,3033.9164383745,3034.41642823718,3035.5729108,NaN,NaN,0,NaN,0.307438000000275
SX103,prp,0,12,10,face_15,object_20,non-target,face,center,face_17,1.5,1.36111111111111,0.116,0.116,onset,1100,87,3039.36072931629,NaN,0,cr,1,3039.4768462,1100,1,3040.2492069,1100,0,3040.86763387673,3041.36761569763,3042.7183805,NaN,NaN,0,NaN,0.772360699999808
SX103,prp,0,12,11,face_15,object_20,non-target,object,left,object_05,0.5,0.784722222222222,0.116,0.116,onset,1100,215,3042.72868966254,NaN,0,cr,1,3042.8449158,1100,1,3043.4009334,1100,0,3043.23562495807,3044.73558285807,3045.5099826,NaN,NaN,0,NaN,0.556017600000359
SX103,prp,0,12,12,face_15,object_20,irrelevant,letter,center,letter_02,1.5,1.22916666666667,0.232,0.232,onset,1100,12,3045.52027837897,NaN,0,cr,1,3045.7523305,1100,1,3046.1603984,1100,0,3047.02718515807,3047.52716813941,3048.7462843,NaN,NaN,0,NaN,0.408067899999878
SX103,prp,0,12,14,face_15,object_20,irrelevant,letter,left,letter_15,0.5,1.95138888888889,0.466,0.966,offset,1100,45,3052.63119199763,NaN,0,cr,1,3053.5972314,1100,1,3053.9609616,1100,0,3053.13812425807,3054.63808225584,3056.5792245,NaN,NaN,0,NaN,0.363730199999736
SX103,prp,0,12,16,face_15,object_20,non-target,object,left,object_15,1.5,0.972222222222222,0.116,1.616,offset,1100,225,3059.55461031405,NaN,0,cr,1,3061.1707561,1100,1,3061.6169595,1100,0,3061.06151075807,3061.56149843718,3062.5234789,NaN,NaN,0,NaN,0.446203400000286
SX103,prp,0,12,17,face_15,object_20,non-target,face,center,face_05,1.5,0.881944444444444,0.116,0.116,onset,1000,75,3062.53369391405,NaN,0,cr,2,3062.6497288,1000,1,3063.2167531,1000,0,3064.04059044388,3064.54058253718,3065.4122547,NaN,NaN,0,NaN,0.567024299999957
SX103,prp,0,12,18,face_15,object_20,irrelevant,false_font,center,false_font_16,1,0.881944444444444,0.116,1.116,offset,1100,146,3065.42250197897,NaN,0,cr,1,3066.5386996,1100,1,3066.9368367,1100,0,3066.42942080958,3067.42938790958,3068.3010643,NaN,NaN,0,NaN,0.398137099999985
SX103,prp,0,12,19,face_15,object_20,irrelevant,letter,center,letter_05,0.5,1.09027777777778,0,0,onset,1000,15,3068.31130947897,NaN,0,cr,2,3068.3123452,1000,1,3068.8329577,1000,0,3068.81823893941,3070.31819901629,3071.3981267,NaN,NaN,0,NaN,0.52061249999997
SX103,prp,0,12,20,face_15,object_20,non-target,face,right,face_10,1.5,1.34027777777778,0.232,0.232,onset,1000,120,3071.4084463745,NaN,0,cr,2,3071.6405041,1000,1,3072.0244515,1000,0,3072.91534937673,3073.41533061629,3074.7454562,NaN,NaN,0,NaN,0.383947400000125
SX103,prp,0,12,21,face_15,object_20,non-target,face,center,face_06,1,1.01388888888889,0.232,0.232,onset,1000,76,3074.75557451852,NaN,0,cr,2,3074.987674,1000,1,3075.3844373,1000,0,3075.76249327003,3076.76246027673,3077.7662105,NaN,NaN,0,NaN,0.396763300000202
SX103,prp,0,12,22,face_15,object_20,irrelevant,false_font,center,false_font_17,1,1.06944444444444,0.116,0.116,onset,1000,147,3077.7763214469,NaN,0,cr,2,3077.8925392,1000,1,3078.2809035,1000,0,3078.78323765584,3079.78321277897,3080.8425146,NaN,NaN,0,NaN,0.388364299999921
SX103,prp,0,12,23,face_15,object_20,irrelevant,letter,right,letter_18,1,0.8125,0.116,1.116,offset,1100,68,3080.85262513941,NaN,0,cr,1,3081.968749,1100,1,3082.4649123,1100,0,3081.85954007003,3082.85951199763,3083.6618708,NaN,NaN,0,NaN,0.496163299999807
SX103,prp,0,12,24,face_15,object_20,non-target,object,left,object_08,1.5,1.52083333333333,0.466,0.466,onset,1100,218,3083.67199073941,NaN,0,cr,1,3084.1381935,1100,1,3084.5287858,1100,0,3085.17889087897,3085.67887655807,3087.1893966,NaN,NaN,0,NaN,0.390592300000208
SX103,prp,0,12,25,face_15,object_20,non-target,object,right,object_17,0.5,1.4375,0,0,onset,1000,247,3087.19967045807,NaN,0,cr,2,3087.2007213,1000,1,3087.6489801,1000,0,3087.70659913718,3089.20655621629,3090.633838,NaN,NaN,0,NaN,0.448258799999621
SX103,prp,0,12,26,face_15,object_20,irrelevant,letter,left,letter_04,0.5,1.09722222222222,0,0.5,offset,1000,34,3090.64402113495,NaN,0,cr,2,3091.1520369,1000,1,3091.8569828,1000,0,3091.15094519763,3092.65090725807,3093.7379539,NaN,NaN,0,NaN,0.704945899999984
