trial,block,target_1,target_2,task_relevance,category,duration,SOA,SOA_lock,pitch,orientation,identity,stim_jit,session,onset_SOA,texture,vis_stim_time,time_of_resp_vis,has_repsonse_vis,trial_repsonse_vis,aud_stim_buff,aud_stim_time,aud_resp,trial_accuracy_aud,time_of_resp_aud,trial_first_button_press,trial_second_button_press,fix_time,JitOnset,trial_end,TargetScreenOnset,iRT_vis,iRT_aud,RT_vis,RT_aud
1,1,letter_17,false_font_19,irrelevant,object,0.506666666666667,0.232,offset,high,right,object_20,1.03333333333333,1,0.738666666666667,250,179653.7903903,NaN,0,cr,1,179654.5304038,1100,1,179655.2230897,1100,0,179654.2930096,NaN,179655.7798491,179650.529348,128,269,NaN,0.692685900023207
2,1,letter_17,false_font_19,non-target,letter,0.506666666666667,0,offset,low,center,letter_19,0.513333333333333,1,0.506666666666667,29,179659.9773223,NaN,0,cr,2,179660.4747999,1000,1,179661.0836213,1000,0,179660.4811765,NaN,179661.9662656,0,225,357,NaN,0.608821400004672
3,1,letter_17,false_font_19,irrelevant,object,1,0.232,offset,low,left,object_13,0.62,1,1.232,223,179666.6791152,NaN,0,cr,2,179667.9014388,1000,1,179668.3670763,1000,0,179667.6746053,NaN,179668.6682708,0,204,354,NaN,0.465637499990407
4,1,letter_17,false_font_19,non-target,letter,1,0,onset,high,right,letter_03,0.566666666666667,1,0,53,179672.7097403,NaN,0,cr,1,179672.7124463,1100,1,179673.3747905,1100,0,179673.7054744,NaN,179674.6991557,0,289,436,NaN,0.66234420001274
5,1,letter_17,false_font_19,non-target,letter,1.49333333333333,0.116,offset,low,center,letter_16,1.04666666666667,1,1.60933333333333,26,179678.6630586,NaN,0,cr,2,179680.2639614,0,NaN,NaN,0,0,179680.1516407,NaN,179680.652426,0,289,234,NaN,NaN
6,1,letter_17,false_font_19,non-target,false_font,1.49333333333333,0.116,offset,low,left,false_font_01,0.793333333333333,1,1.60933333333333,151,179685.4022317,NaN,0,cr,2,179687.001823,0,NaN,NaN,0,0,179686.8906245,NaN,179687.3915259,0,352,236,NaN,NaN
7,1,letter_17,false_font_19,target,letter,0.506666666666667,0.116,offset,high,center,letter_17,0.74,1,0.622666666666667,27,179691.449318,NaN,0,miss,1,179692.0621842,1100,1,179692.6436779,1100,0,179691.9511688,NaN,179693.4383387,0,279,290,NaN,0.581493699981365
8,1,letter_17,false_font_19,non-target,false_font,1,0,onset,low,right,false_font_06,0.633333333333333,1,0,176,179697.0525689,NaN,0,cr,2,179697.05408,1000,1,179697.6349788,1000,0,179698.048329,NaN,179699.0416625,0,553,284,NaN,0.580898799991701
9,1,letter_17,false_font_19,irrelevant,object,1,0,onset,low,left,object_14,0.78,1,0,224,179703.3294457,NaN,0,cr,2,179703.331502,1000,1,179704.1152574,1000,0,179704.3252979,NaN,179705.3187374,0,452,276,NaN,0.783755400014343
10,1,letter_17,false_font_19,irrelevant,object,0.506666666666667,0.232,offset,high,center,object_18,0.526666666666667,1,0.738666666666667,208,179709.9396649,NaN,0,cr,1,179710.6683569,1100,1,179711.2074642,1100,0,179710.4413542,NaN,179711.9285839,0,283,267,NaN,0.539107300020987
11,1,letter_17,false_font_19,irrelevant,object,0.506666666666667,0.116,onset,high,right,object_11,0.54,1,0.116,241,179715.5265064,NaN,0,cr,1,179715.6323472,1100,1,179716.3746365,1100,0,179716.0283745,NaN,179717.5156001,0,241,510,NaN,0.742289299989352
12,1,letter_17,false_font_19,target,letter,1,0,onset,high,center,letter_17,0.54,1,0,27,179722.4036763,NaN,0,miss,1,179722.404965,1100,1,179723.1118385,1100,0,179723.399142,NaN,179724.3925903,0,264,488,NaN,0.706873499992071
13,1,letter_17,false_font_19,non-target,false_font,0.506666666666667,0.232,offset,low,center,false_font_14,0.926666666666667,1,0.738666666666667,144,179728.4115992,NaN,0,cr,2,179729.1400342,1000,1,179729.7474484,1000,0,179728.9135054,NaN,179730.4009446,0,231,286,NaN,0.607414199999766
14,1,letter_17,false_font_19,irrelevant,face,0.506666666666667,0.116,offset,high,left,face_03,0.553333333333333,1,0.622666666666667,93,179733.9824503,NaN,0,cr,1,179734.5953432,1100,1,179735.1915014,1100,0,179734.4839218,NaN,179735.9716007,0,264,189,NaN,0.59615820000181
15,1,letter_17,false_font_19,non-target,letter,1,0,onset,low,center,letter_04,0.74,1,0,14,179740.6652913,NaN,0,cr,2,179740.6664851,1000,1,179741.2232813,1000,0,179741.6610037,NaN,179742.6542753,0,413,309,NaN,0.556796199991368
16,1,letter_17,false_font_19,non-target,false_font,1.49333333333333,0,offset,low,center,false_font_06,0.873333333333333,1,1.49333333333333,136,179746.8840144,NaN,0,cr,2,179748.3670945,0,NaN,NaN,0,0,179748.3726962,NaN,179748.8729574,0,284,676,NaN,NaN
17,1,letter_17,false_font_19,non-target,false_font,0.506666666666667,0.232,onset,high,left,false_font_15,0.54,1,0.232,165,179754.3294366,NaN,0,cr,1,179754.551453,1100,1,179755.0273582,1100,0,179754.8323733,NaN,179756.3184471,0,323,303,NaN,0.475905200000852
18,1,letter_17,false_font_19,irrelevant,face,0.506666666666667,0,onset,low,left,face_10,0.686666666666667,1,0,100,179760.0601818,NaN,0,cr,2,179760.0618285,1000,1,179760.790562,1000,0,179760.5620337,NaN,179762.0491169,0,350,320,NaN,0.728733500000089
19,1,letter_17,false_font_19,irrelevant,face,1,0,offset,high,left,face_14,0.806666666666667,1,1,104,179766.2617426,NaN,0,cr,1,179767.2515017,1100,1,179767.8362012,1100,0,179767.257912,NaN,179768.2507127,0,293,293,NaN,0.584699500002898
20,1,letter_17,false_font_19,non-target,letter,1,0.232,offset,low,center,letter_03,0.673333333333333,1,1.232,13,179781.5755314,NaN,0,cr,2,179782.7975496,0,NaN,NaN,0,0,179782.5795982,NaN,179783.5647566,0,260,613,NaN,NaN
21,1,letter_17,false_font_19,irrelevant,face,1.49333333333333,0.116,onset,low,left,face_05,0.553333333333333,1,0.116,95,179788.8898365,NaN,0,cr,2,179788.9964564,1000,1,179789.7034459,1000,0,179790.3798104,NaN,179790.8788578,0,329,587,NaN,0.706989500002237
22,1,letter_17,false_font_19,irrelevant,face,0.506666666666667,0,offset,high,center,face_11,0.54,1,0.506666666666667,81,179795.0802942,NaN,0,cr,1,179795.5767339,1100,1,179796.1392959,1100,0,179795.5825511,NaN,179797.0692616,0,335,323,NaN,0.562562000006437
23,1,letter_17,false_font_19,target,letter,0.506666666666667,0.116,onset,low,right,letter_17,0.62,1,0.116,67,179804.6117399,NaN,0,miss,2,179804.7181524,1000,1,179805.6674648,1000,0,179805.1149312,NaN,179806.6010075,0,496,218,NaN,0.949312400014605
24,1,letter_17,false_font_19,irrelevant,face,1.49333333333333,0,onset,high,left,face_11,0.646666666666667,1,0,101,179811.9237572,NaN,0,cr,1,179811.925201,1100,1,179812.5424902,1100,0,179813.4140895,NaN,179813.9129452,0,221,213,NaN,0.617289199988591
25,1,letter_17,false_font_19,irrelevant,object,1.49333333333333,0,onset,low,right,object_06,0.566666666666667,1,0,236,179816.9746708,NaN,0,cr,2,179816.976766,1000,1,179817.7874687,1000,0,179818.4633888,NaN,179818.9636091,0,193,472,NaN,0.810702699993271
26,1,letter_17,false_font_19,non-target,false_font,0.506666666666667,0.116,onset,high,center,false_font_18,0.74,1,0.116,148,179823.5738486,179824.6475957,1,fa,1,179823.6796161,1100,1,179824.2432313,1100,1,179824.0756543,NaN,179825.5628806,0,607,295,1.0737470999884,0.563615199993365
27,1,letter_17,false_font_19,target,false_font,1.49333333333333,0.466,onset,high,right,false_font_19,0.633333333333333,1,0.466,189,179830.9140878,179831.6958536,1,hit,1,179831.370167,1100,1,179832.3031914,1,1100,179832.4033714,NaN,179832.9030052,0,227,605,0.781765799998539,0.933024400001159
28,1,letter_17,false_font_19,irrelevant,object,1,0.232,offset,low,center,object_06,0.526666666666667,1,1.232,196,179837.6344739,NaN,0,cr,2,179838.8563454,1000,1,179839.3625244,1000,0,179838.6302359,NaN,179839.6235364,0,285,402,NaN,0.506178999989061
29,1,letter_17,false_font_19,target,letter,1.49333333333333,0.232,offset,high,right,letter_17,0.886666666666667,1,1.72533333333333,67,179843.5511903,179845.0304314,1,hit,1,179845.2665527,0,NaN,NaN,1,0,179845.0397761,NaN,179845.5401087,0,819,758,1.4792410999944,NaN
30,1,letter_17,false_font_19,non-target,letter,0.506666666666667,0.116,onset,high,left,letter_14,0.566666666666667,1,0.116,44,179853.0948153,NaN,0,cr,1,179853.2005741,1100,1,179853.6150862,1100,0,179853.5979986,NaN,179855.084013,0,215,409,NaN,0.414512100018328
31,1,letter_17,false_font_19,non-target,letter,1.49333333333333,0.116,onset,low,right,letter_15,0.873333333333333,1,0.116,65,179858.8624837,NaN,0,cr,2,179858.9683907,1000,1,179859.5632552,1000,0,179860.3508356,NaN,179860.8515212,0,299,318,NaN,0.594864499988034
32,1,letter_17,false_font_19,non-target,false_font,1,0,offset,low,center,false_font_16,0.566666666666667,1,1,146,179864.6964874,179865.6346225,1,fa,2,179865.6863406,1100,0,179866.6072845,1,1100,179865.69289,NaN,179866.6853933,0,257,654,0.938135099975625,0.92094390001148
33,1,letter_17,false_font_19,non-target,letter,1,0.116,onset,high,right,letter_01,0.646666666666667,1,0.116,51,179871.5172527,NaN,0,cr,1,179871.6231648,1100,1,179872.1034735,1100,0,179872.5129529,NaN,179873.5062395,0,291,308,NaN,0.480308700003661
34,1,letter_17,false_font_19,irrelevant,face,0.506666666666667,0.466,offset,high,center,face_13,0.753333333333333,1,0.972666666666667,83,179876.7980152,NaN,0,cr,1,179877.7609796,0,NaN,NaN,0,0,179877.3001157,NaN,179878.7872025,0,217,899,NaN,NaN
35,1,letter_17,false_font_19,non-target,false_font,1,0,offset,low,right,false_font_16,0.886666666666667,1,1,186,179884.538053,179885.2989807,1,fa,2,179885.527791,1000,1,179885.9830335,1,1000,179885.5348926,NaN,179886.526968,0,218,230,0.760927700001048,0.455242500000168
36,1,letter_17,false_font_19,irrelevant,face,0.506666666666667,0.466,offset,low,center,face_05,0.686666666666667,1,0.972666666666667,75,179889.4070588,NaN,0,cr,2,179890.3698256,1000,1,179890.8748673,1000,0,179889.9093239,NaN,179891.396167,0,275,293,NaN,0.505041700002039
37,1,letter_17,false_font_19,irrelevant,object,1,0.466,onset,high,left,object_05,0.66,1,0.466,215,179894.7111776,NaN,0,cr,1,179895.1670971,1100,1,179895.6350502,1100,0,179895.7074073,NaN,179896.7004052,0,274,228,NaN,0.467953100014711
38,2,letter_05,false_font_16,target,false_font,0.506666666666667,0,onset,high,right,false_font_16,1.12666666666667,1,0,186,179968.934253,179969.7270742,1,hit,1,179968.9368259,1100,1,179969.9781771,1,1100,179969.4369217,NaN,179970.9232318,179965.6268679,592,638,0.792821199982427,1.0413512000232
39,2,letter_05,false_font_16,irrelevant,face,1.49333333333333,0,offset,low,center,face_02,0.713333333333333,1,1.49333333333333,72,179977.1931743,NaN,0,cr,2,179978.6766724,0,NaN,NaN,0,0,179978.697968,NaN,179979.1825375,0,269,178,NaN,NaN
40,2,letter_05,false_font_16,non-target,letter,1,0.116,offset,low,right,letter_13,0.553333333333333,1,1.116,63,179982.2813476,NaN,0,cr,2,179983.3873228,1000,1,179984.0507443,1000,0,179983.2767075,NaN,179984.2705514,0,390,611,NaN,0.663421500008553
41,2,letter_05,false_font_16,irrelevant,object,0.506666666666667,0.232,onset,high,right,object_03,0.58,1,0.232,233,179988.9607227,NaN,0,cr,1,179989.1829701,1100,1,179989.6267936,1100,0,179989.4627482,NaN,179990.9497392,0,203,379,NaN,0.443823500012513
42,2,letter_05,false_font_16,non-target,false_font,1.49333333333333,0.116,onset,low,right,false_font_18,0.593333333333333,1,0.116,188,179995.2195097,NaN,0,cr,2,179995.3255338,1000,1,179995.9988053,1000,0,179996.7084118,NaN,179997.2084131,0,597,291,NaN,0.673271500010742
43,2,letter_05,false_font_16,non-target,false_font,0.506666666666667,0.116,offset,high,right,false_font_12,0.806666666666667,1,0.622666666666667,182,180002.3603106,NaN,0,cr,1,180002.9732241,1100,1,180003.5667802,1100,0,180002.8632532,NaN,180004.3496199,0,448,262,NaN,0.593556100007845
44,2,letter_05,false_font_16,non-target,letter,1.49333333333333,0.116,onset,high,left,letter_11,0.66,1,0.116,41,180007.8218006,NaN,0,cr,1,180007.9279016,1100,1,180008.6908641,1100,0,180009.3102165,NaN,180009.8110183,0,345,279,NaN,0.762962500011781
45,2,letter_05,false_font_16,irrelevant,face,1.49333333333333,0.116,onset,high,center,face_10,1.12666666666667,1,0.116,80,180012.4750967,NaN,0,cr,1,180012.5813978,1100,1,180013.1862317,1100,0,180013.9641565,NaN,180014.4645015,0,286,460,NaN,0.604833899997175
46,2,letter_05,false_font_16,non-target,false_font,1.49333333333333,0.116,onset,low,center,false_font_13,0.633333333333333,1,0.116,143,180018.4865536,NaN,0,cr,2,180018.5926966,1000,1,180019.1507889,1000,0,180019.9760045,NaN,180020.4755982,0,256,233,NaN,0.558092299994314
47,2,letter_05,false_font_16,non-target,false_font,0.506666666666667,0.116,onset,low,center,false_font_04,0.526666666666667,1,0.116,134,180023.9775855,NaN,0,cr,2,180024.083895,1000,1,180024.622065,1000,0,180024.479555,NaN,180025.9668889,0,302,275,NaN,0.538170000014361
48,2,letter_05,false_font_16,irrelevant,object,0.506666666666667,0.232,onset,low,center,object_03,0.686666666666667,1,0.232,193,180028.6072745,NaN,0,cr,2,180028.8291835,1000,1,180029.4022367,1000,0,180029.1091064,NaN,180030.5965006,0,315,478,NaN,0.573053200001596
49,2,letter_05,false_font_16,non-target,false_font,0.506666666666667,0,onset,low,center,false_font_03,0.713333333333333,1,0,133,180033.846124,NaN,0,cr,2,180033.8473987,1000,1,180034.3870056,1000,0,180034.3481302,NaN,180035.8352015,0,320,280,NaN,0.539606900012586
50,2,letter_05,false_font_16,non-target,letter,1,0,offset,high,center,letter_14,0.593333333333333,1,1,24,180038.6725352,NaN,0,cr,1,180039.6628082,1100,1,180040.1068819,1100,0,180039.6683674,NaN,180040.6615354,0,249,322,NaN,0.444073699996807
51,2,letter_05,false_font_16,irrelevant,object,0.506666666666667,0.466,onset,low,center,object_08,0.553333333333333,1,0.466,198,180044.4802363,NaN,0,cr,2,180044.9360855,1000,1,180045.9947331,1000,0,180044.9819636,NaN,180046.4691911,0,192,734,NaN,1.05864760000259
52,2,letter_05,false_font_16,irrelevant,object,1.49333333333333,0.232,offset,low,center,object_19,0.58,1,1.72533333333333,209,180050.8564484,NaN,0,cr,2,180052.5717138,0,NaN,NaN,0,0,180052.3448035,NaN,180052.8456085,0,168,430,NaN,NaN
53,2,letter_05,false_font_16,non-target,letter,1.49333333333333,0.232,onset,low,center,letter_14,0.526666666666667,1,0.232,24,180057.5623965,NaN,0,cr,2,180057.7846022,1000,1,180058.298828,1000,0,180059.0514526,NaN,180059.5515111,0,285,356,NaN,0.514225799997803
54,2,letter_05,false_font_16,non-target,false_font,0.506666666666667,0.466,onset,low,left,false_font_10,0.526666666666667,1,0.466,160,180062.7501428,180064.190708,1,fa,2,180063.2058208,1100,0,180064.303759,1,1100,180063.2516112,NaN,180064.7390522,0,288,613,1.44056519999867,1.09793819999322
55,2,letter_05,false_font_16,irrelevant,object,0.506666666666667,0.232,offset,low,center,object_09,0.966666666666667,1,0.738666666666667,199,180069.6060538,NaN,0,cr,2,180070.3344201,1000,1,180070.9348789,1000,0,180070.1083506,NaN,180071.5953671,0,234,587,NaN,0.600458800006891
56,2,letter_05,false_font_16,target,false_font,1,0.232,onset,high,right,false_font_16,0.886666666666667,1,0.232,186,180076.246564,180076.9867342,1,hit,1,180076.4682819,1100,1,180077.2468999,1,1100,180077.241489,NaN,180078.2354794,0,211,424,0.740170200006105,0.778618000011193
57,2,letter_05,false_font_16,target,letter,1,0.466,onset,low,right,letter_05,0.913333333333333,1,0.466,55,180081.9738736,180082.918771,1,hit,2,180082.4298927,1000,1,180083.2468128,1,1000,180082.9696059,NaN,180083.9627841,0,193,459,0.944897399982437,0.816920100012794
58,2,letter_05,false_font_16,irrelevant,face,1,0.116,onset,low,center,face_05,0.753333333333333,1,0.116,75,180087.6483678,NaN,0,cr,2,180087.7546091,1000,1,180088.1905052,1000,0,180088.6446678,NaN,180089.6374993,0,263,479,NaN,0.435896100010723
59,2,letter_05,false_font_16,non-target,letter,0.506666666666667,0.466,offset,low,center,letter_17,0.873333333333333,1,0.972666666666667,27,180093.3114795,NaN,0,cr,2,180094.2740889,1000,1,180094.7106091,1000,0,180093.8128804,NaN,180095.3007501,0,481,211,NaN,0.4365201999899
60,2,letter_05,false_font_16,irrelevant,face,0.506666666666667,0,offset,low,center,face_18,0.553333333333333,1,0.506666666666667,88,180098.696558,NaN,0,cr,2,180099.1931873,1100,0,180099.7905734,1100,0,180099.1992078,NaN,180100.6857643,0,242,348,NaN,0.597386100009317
61,2,letter_05,false_font_16,irrelevant,face,1.49333333333333,0,onset,low,left,face_01,0.526666666666667,1,0,91,180103.9925151,NaN,0,cr,2,180103.994798,1000,1,180104.538814,1000,0,180105.4809352,NaN,180105.9817645,0,206,415,NaN,0.544015999999829
62,2,letter_05,false_font_16,non-target,letter,0.506666666666667,0.466,onset,low,left,letter_01,0.513333333333333,1,0.466,31,180109.6950012,NaN,0,cr,2,180110.1509572,1000,1,180110.6507309,1000,0,180110.1973443,NaN,180111.6841024,0,291,418,NaN,0.499773699993966
63,2,letter_05,false_font_16,non-target,letter,0.506666666666667,0,onset,high,center,letter_17,0.526666666666667,1,0,27,180115.5852131,NaN,0,cr,1,180115.586575,1100,1,180116.1507488,1100,0,180116.0880677,NaN,180117.5742534,0,311,329,NaN,0.564173799997661
64,2,letter_05,false_font_16,non-target,letter,1.49333333333333,0.116,offset,high,center,letter_16,0.633333333333333,1,1.60933333333333,26,180122.3977477,NaN,0,cr,1,180123.996886,0,NaN,NaN,0,0,180123.8869816,NaN,180124.3868579,0,266,431,NaN,NaN
65,2,letter_05,false_font_16,target,false_font,1,0,onset,low,right,false_font_16,0.58,1,0,186,180128.9607163,180129.6865165,1,hit,2,180128.9627365,1000,1,180130.0905187,1,1000,180129.9559539,NaN,180130.9496501,0,317,592,0.725800199987134,1.12778219999745
66,2,letter_05,false_font_16,irrelevant,face,1,0.466,onset,low,center,face_02,0.54,1,0.466,72,180134.9777756,NaN,0,cr,2,180135.4339634,1000,1,180135.8743988,1000,0,180135.9726439,NaN,180136.96701,0,269,498,NaN,0.440435399999842
67,2,letter_05,false_font_16,non-target,false_font,1,0.116,onset,high,right,false_font_09,0.5,1,0.116,179,180141.3467854,NaN,0,cr,1,180141.4531602,1100,1,180142.4946704,1100,0,180142.3413811,NaN,180143.3361587,0,845,358,NaN,1.04151019998244
68,2,letter_05,false_font_16,irrelevant,face,0.506666666666667,0.116,onset,high,right,face_15,0.62,1,0.116,125,180149.0511368,NaN,0,cr,1,180149.1569249,1100,1,180149.718578,1100,0,180149.5712969,NaN,180151.0403594,0,295,372,NaN,0.561653100012336
69,2,letter_05,false_font_16,irrelevant,object,0.506666666666667,0.466,onset,low,center,object_20,0.713333333333333,1,0.466,210,180155.787574,NaN,0,cr,2,180156.2436916,1000,1,180156.7064369,1000,0,180156.2897619,NaN,180157.7765744,0,311,368,NaN,0.462745300028473
70,2,letter_05,false_font_16,irrelevant,object,1.49333333333333,0.232,offset,high,center,object_16,0.646666666666667,1,1.72533333333333,206,180162.160148,NaN,0,cr,1,180163.8752562,0,NaN,NaN,0,0,180163.6495951,NaN,180164.1491127,0,287,303,NaN,NaN
71,2,letter_05,false_font_16,non-target,false_font,0.506666666666667,0,onset,high,right,false_font_03,0.686666666666667,1,0,173,180168.0209254,NaN,0,cr,1,180168.0222725,0,NaN,NaN,0,0,180168.5227073,NaN,180170.0104582,0,328,308,NaN,NaN
72,2,letter_05,false_font_16,irrelevant,face,0.506666666666667,0,onset,high,left,face_17,1.07333333333333,1,0,107,180172.9017717,NaN,0,cr,1,180172.903493,1100,1,180173.6984484,1100,0,180173.4042315,NaN,180174.8908064,0,317,315,NaN,0.794955400022445
73,2,letter_05,false_font_16,irrelevant,object,0.506666666666667,0.116,onset,low,right,object_10,0.526666666666667,1,0.116,240,180178.1519708,NaN,0,cr,2,180178.2577864,1000,1,180179.1503594,1000,0,180178.6534561,NaN,180180.1411468,0,292,443,NaN,0.89257299999008
74,2,letter_05,false_font_16,target,false_font,0.506666666666667,0.232,offset,low,center,false_font_16,0.753333333333333,1,0.738666666666667,146,180183.222543,180185.0066111,1,hit,2,180183.9514771,0,NaN,NaN,1,0,180183.7246772,NaN,180185.211566,0,256,630,1.78406809997978,NaN
75,3,face_16,object_10,non-target,object,1,0.232,onset,high,center,object_11,0.58,1,0.232,201,180208.318707,NaN,0,cr,1,180208.5406029,1100,1,180209.8818893,1100,0,180209.3315523,NaN,180210.3078283,180205.9216321,214,638,NaN,1.3412864000129
76,3,face_16,object_10,irrelevant,false_font,0.506666666666667,0.232,onset,low,center,false_font_01,0.593333333333333,1,0.232,131,180214.4036056,NaN,0,cr,2,180214.6257257,1000,1,180215.2056267,1000,0,180214.9054057,NaN,180216.392754,0,111,456,NaN,0.579900999990059
77,3,face_16,object_10,non-target,object,0.506666666666667,0.232,offset,low,center,object_20,0.553333333333333,1,0.738666666666667,210,180221.5527859,NaN,0,cr,2,180222.2816441,1000,1,180222.8465633,1000,0,180222.0556528,NaN,180223.5417547,0,249,338,NaN,0.564919199998258
78,3,face_16,object_10,irrelevant,false_font,0.506666666666667,0,offset,low,center,false_font_02,0.513333333333333,1,0.506666666666667,132,180227.0089831,NaN,0,cr,2,180227.5055964,1000,1,180228.1826794,1000,0,180227.5114559,NaN,180228.9981596,0,221,524,NaN,0.677082999987761
79,3,face_16,object_10,irrelevant,false_font,0.506666666666667,0.466,offset,low,center,false_font_10,0.62,1,0.972666666666667,140,180232.5771868,NaN,0,cr,2,180233.5396061,1000,1,180234.0185151,1000,0,180233.0795709,NaN,180234.5664209,0,239,419,NaN,0.478908999997657
80,3,face_16,object_10,non-target,face,1.49333333333333,0.232,onset,low,left,face_03,0.593333333333333,1,0.232,93,180237.6513376,NaN,0,cr,2,180237.8735185,1000,1,180238.8096727,1000,0,180239.1405775,NaN,180239.6404315,0,266,675,NaN,0.936154199996963
81,3,face_16,object_10,target,face,0.506666666666667,0,onset,low,center,face_16,0.793333333333333,1,0,86,180243.8327778,NaN,0,miss,2,180243.8342104,1000,1,180244.4504594,1000,0,180244.3348074,NaN,180245.8222087,0,518,328,NaN,0.616248999984236
82,3,face_16,object_10,non-target,face,1.49333333333333,0,offset,low,right,face_11,0.806666666666667,1,1.49333333333333,121,180250.2646817,NaN,0,cr,2,180251.7477236,0,NaN,NaN,0,0,180251.7544045,NaN,180252.2536998,0,259,807,NaN,NaN
83,3,face_16,object_10,non-target,face,1.49333333333333,0,onset,low,center,face_19,0.553333333333333,1,0,89,180259.1577286,NaN,0,cr,2,180259.1589195,1000,1,180259.6900251,1000,0,180260.6583682,NaN,180261.146988,0,221,426,NaN,0.531105599977309
84,3,face_16,object_10,irrelevant,letter,1,0.466,offset,low,center,letter_12,0.58,1,1.466,22,180266.8245357,NaN,0,cr,2,180268.2803093,1000,1,180268.7415958,1000,0,180267.8209435,NaN,180268.8135636,0,249,619,NaN,0.46128650000901
85,3,face_16,object_10,non-target,object,1.49333333333333,0.466,onset,high,center,object_01,0.873333333333333,1,0.466,191,180273.7066849,NaN,0,cr,1,180274.1625694,1100,1,180274.6706999,1100,0,180275.1951126,NaN,180275.6958674,0,301,556,NaN,0.508130499976687
86,3,face_16,object_10,irrelevant,letter,1.49333333333333,0.466,onset,low,right,letter_03,0.713333333333333,1,0.466,53,180280.0713505,NaN,0,cr,2,180280.5272973,1000,1,180281.042199,1000,0,180281.560083,NaN,180282.0604253,0,274,310,NaN,0.514901699993061
87,3,face_16,object_10,non-target,object,1,0.232,offset,low,left,object_05,0.5,1,1.232,215,180285.1694411,NaN,0,cr,2,180286.391222,1000,1,180286.8543888,1000,0,180286.164977,NaN,180287.1586257,0,319,339,NaN,0.463166800007457
88,3,face_16,object_10,irrelevant,false_font,1.49333333333333,0.116,onset,high,center,false_font_20,0.726666666666667,1,0.116,150,180290.8740992,NaN,0,cr,1,180290.9805093,1100,1,180291.6175972,1100,0,180292.3624948,NaN,180292.8631858,0,384,489,NaN,0.637087900016923
89,3,face_16,object_10,irrelevant,letter,1,0,offset,low,center,letter_04,0.606666666666667,1,1,14,180297.574429,NaN,0,cr,2,180298.5644064,1000,1,180298.9422446,1000,0,180298.570181,NaN,180299.5635301,0,241,331,NaN,0.377838200016413
90,3,face_16,object_10,irrelevant,false_font,0.506666666666667,0,onset,high,center,false_font_12,0.62,1,0,142,180303.2697402,NaN,0,cr,1,180303.2710979,1100,1,180303.8861395,1100,0,180303.7716203,NaN,180305.2587166,0,246,302,NaN,0.615041600016411
91,3,face_16,object_10,irrelevant,false_font,0.506666666666667,0.466,offset,low,left,false_font_05,0.7,1,0.972666666666667,155,180308.1789705,NaN,0,cr,2,180309.1415563,1000,1,180309.5464106,1000,0,180308.6806434,NaN,180310.1681012,0,250,321,NaN,0.404854300024454
92,3,face_16,object_10,non-target,object,1.49333333333333,0.232,onset,low,right,object_14,0.94,1,0.232,244,180313.8990517,NaN,0,cr,2,180314.1213487,1000,1,180314.5217282,1000,0,180315.3875721,NaN,180315.8882463,0,166,306,NaN,0.4003795000026
93,3,face_16,object_10,irrelevant,false_font,0.506666666666667,0.116,offset,low,right,false_font_19,0.593333333333333,1,0.622666666666667,189,180318.9794591,NaN,0,cr,2,180319.5922387,1100,0,180320.0980509,1100,0,180319.4811159,NaN,180320.9687216,0,298,304,NaN,0.505812200019136
94,3,face_16,object_10,irrelevant,letter,0.506666666666667,0.466,onset,low,center,letter_12,0.98,1,0.466,22,180324.8169904,NaN,0,cr,2,180325.2734051,1000,1,180325.6423598,1000,0,180325.319082,NaN,180326.8061302,0,243,282,NaN,0.368954700010363
95,3,face_16,object_10,target,object,0.506666666666667,0,offset,high,right,object_10,0.5,1,0.506666666666667,240,180330.3227333,180331.0817139,1,hit,1,180330.8194144,1100,1,180331.289443,1,1100,180330.8253324,NaN,180332.3116324,0,223,371,0.758980599988718,0.470028599986108
96,3,face_16,object_10,irrelevant,letter,1,0,onset,low,center,letter_10,0.686666666666667,1,0,20,180335.3948375,NaN,0,cr,2,180335.3965894,1000,1,180335.8181483,1000,0,180336.3904098,NaN,180337.384165,0,274,308,NaN,0.421558899979573
97,3,face_16,object_10,non-target,face,0.506666666666667,0.116,offset,high,right,face_19,0.673333333333333,1,0.622666666666667,129,180340.7414424,180342.1980978,1,fa,1,180341.3540202,1100,1,180341.818189,1100,1,180341.242971,NaN,180342.7303523,0,612,387,1.45665539999027,0.464168800011976
98,3,face_16,object_10,irrelevant,letter,1.49333333333333,0,onset,low,center,letter_14,0.526666666666667,1,0,24,180349.7367447,NaN,0,cr,2,180349.7385348,1000,1,180350.274282,1000,0,180351.2272042,NaN,180351.7257198,0,415,248,NaN,0.535747199988691
99,3,face_16,object_10,target,face,0.506666666666667,0.232,offset,high,right,face_16,0.566666666666667,1,0.738666666666667,126,180354.7249778,180355.7982601,1,hit,1,180355.4537701,1100,1,180355.9741928,1,1100,180355.2267735,NaN,180356.7138852,0,296,289,1.07328229999985,0.520422700006748
100,3,face_16,object_10,non-target,face,0.506666666666667,0.116,offset,high,center,face_15,0.606666666666667,1,0.622666666666667,85,180360.0136861,NaN,0,cr,1,180360.626127,1100,1,180361.3263851,1100,0,180360.5164514,NaN,180362.0030989,0,274,576,NaN,0.700258099997882
101,3,face_16,object_10,non-target,object,1,0.466,onset,high,center,object_19,1.08666666666667,1,0.466,209,180366.0689806,NaN,0,cr,1,180366.5248273,1100,1,180366.9899153,1100,0,180367.0646268,NaN,180368.0582552,0,246,272,NaN,0.465087999997195
102,3,face_16,object_10,target,object,0.506666666666667,0.232,offset,low,right,object_10,0.793333333333333,1,0.738666666666667,240,180371.9573562,180373.1023097,1,hit,2,180372.6859403,1100,0,180372.806214,1100,1,180372.4591695,NaN,180373.9462627,0,634,279,1.1449535000138,0.120273700013058
103,3,face_16,object_10,non-target,face,1,0.232,offset,high,right,face_02,0.62,1,1.232,112,180379.928723,NaN,0,cr,1,180381.1505172,1100,1,180381.6536513,1100,0,180380.9255103,NaN,180381.917832,0,234,553,NaN,0.503134099999443
104,3,face_16,object_10,target,face,1.49333333333333,0.116,onset,low,center,face_16,0.526666666666667,1,0.116,86,180386.7466648,180387.8183594,1,hit,2,180386.8529768,1100,0,180387.6501353,1100,1,180388.2347643,NaN,180388.7355743,0,597,329,1.0716945999884,0.797158500005025
105,3,face_16,object_10,target,object,0.506666666666667,0.232,onset,low,center,object_10,1.07333333333333,1,0.232,200,180394.0850511,180394.9941543,1,hit,2,180394.3068272,1100,0,180395.1533872,1,1100,180394.5884328,NaN,180396.0739928,0,592,318,0.909103199985111,0.846560000005411
106,3,face_16,object_10,non-target,face,1,0.466,onset,high,right,face_04,0.74,1,0.466,114,180401.3365895,NaN,0,cr,1,180401.7928114,1100,1,180402.2173197,1100,0,180402.3339521,NaN,180403.3259032,0,293,258,NaN,0.424508299998706
107,3,face_16,object_10,irrelevant,false_font,0.506666666666667,0.232,offset,low,center,false_font_19,0.66,1,0.738666666666667,149,180406.2916074,NaN,0,cr,2,180407.0200306,1000,1,180407.5822188,1000,0,180406.793498,NaN,180408.2808355,0,147,397,NaN,0.562188200012315
108,3,face_16,object_10,non-target,object,0.506666666666667,0,onset,high,center,object_14,0.606666666666667,1,0,204,180412.0584597,NaN,0,cr,1,180412.0597618,1100,1,180412.6981989,1100,0,180412.5604359,NaN,180414.0477062,0,425,319,NaN,0.638437100016745
109,3,face_16,object_10,non-target,face,1,0,onset,low,center,face_02,0.593333333333333,1,0,72,180417.446183,NaN,0,cr,2,180417.4480505,1000,1,180417.9342997,1000,0,180418.4415216,NaN,180419.4352678,0,300,348,NaN,0.486249199981103
110,3,face_16,object_10,irrelevant,letter,1,0.116,offset,low,center,letter_05,0.566666666666667,1,1.116,15,180422.8250174,NaN,0,cr,2,180423.9307685,1000,1,180424.4294996,1000,0,180423.8197873,NaN,180424.8141531,0,259,435,NaN,0.498731100000441
111,3,face_16,object_10,irrelevant,letter,0.506666666666667,0.232,onset,high,center,letter_14,0.54,1,0.232,24,180430.3094329,NaN,0,cr,1,180430.5312999,1100,1,180431.0373026,1100,0,180430.8252676,NaN,180432.2986292,0,274,301,NaN,0.506002699985402
112,3,face_16,object_10,non-target,object,0.506666666666667,0.232,offset,low,center,object_06,0.62,1,0.738666666666667,196,180435.1305579,NaN,0,cr,2,180435.8590485,1000,1,180436.2619781,1000,0,180435.6322857,NaN,180437.1196315,0,256,305,NaN,0.402929600008065
113,4,face_03,object_16,non-target,face,1,0,onset,low,right,face_12,0.82,1,0,122,180475.7374013,NaN,0,cr,2,180475.7386954,1100,0,180477.0021264,1100,0,180476.74581,NaN,180477.7267192,180473.1535292,611,597,NaN,1.2634309999994
114,4,face_03,object_16,irrelevant,letter,0.506666666666667,0.116,onset,high,center,letter_17,0.566666666666667,1,0.116,27,180483.6674945,NaN,0,cr,1,180483.7734859,1100,1,180484.5139977,1100,0,180484.1704417,NaN,180485.656664,0,475,514,NaN,0.740511800016975
115,4,face_03,object_16,irrelevant,false_font,1,0,onset,low,center,false_font_01,0.646666666666667,1,0,131,180489.1483106,NaN,0,cr,2,180489.1498225,1000,1,180489.6657302,1000,0,180490.1433586,NaN,180491.1374956,0,297,262,NaN,0.515907699998934
116,4,face_03,object_16,non-target,face,0.506666666666667,0.466,onset,low,center,face_04,0.553333333333333,1,0.466,74,180495.0291792,NaN,0,cr,2,180495.4849123,1000,1,180496.077175,1000,0,180495.5314786,NaN,180497.0181252,0,486,327,NaN,0.592262700025458
117,4,face_03,object_16,non-target,object,1.49333333333333,0.116,offset,high,right,object_19,0.726666666666667,1,1.60933333333333,249,180500.8714732,NaN,0,cr,1,180502.470889,0,NaN,NaN,0,0,180502.3599115,NaN,180502.8604873,0,218,226,NaN,NaN
118,4,face_03,object_16,irrelevant,false_font,1,0.232,onset,high,center,false_font_13,0.5,1,0.232,143,180506.7013435,NaN,0,cr,1,180506.9235375,1100,1,180507.4939234,1100,0,180507.6974813,NaN,180508.6904699,0,284,293,NaN,0.570385900005931
119,4,face_03,object_16,non-target,object,1.49333333333333,0.116,offset,high,center,object_13,0.566666666666667,1,1.60933333333333,203,180511.602835,NaN,0,cr,1,180513.2022794,0,NaN,NaN,0,0,180513.0913376,NaN,180513.5920609,0,278,293,NaN,NaN
120,4,face_03,object_16,irrelevant,letter,1,0,offset,low,right,letter_20,0.78,1,1,70,180517.1966794,NaN,0,cr,2,180518.1868106,1000,1,180518.6340708,1000,0,180518.1929851,NaN,180519.1857804,0,193,221,NaN,0.447260200016899
121,4,face_03,object_16,irrelevant,false_font,0.506666666666667,0.232,onset,low,right,false_font_13,0.713333333333333,1,0.232,183,180522.3219457,NaN,0,cr,2,180522.5436638,1000,1,180523.081173,1000,0,180522.8238348,NaN,180524.3112767,0,185,222,NaN,0.537509200017666
122,4,face_03,object_16,non-target,face,0.506666666666667,0.232,onset,low,center,face_12,0.646666666666667,1,0.232,82,180527.6090191,NaN,0,cr,2,180527.8311156,1000,1,180528.3938735,1000,0,180528.1106418,NaN,180529.5983166,0,450,295,NaN,0.562757899984717
123,4,face_03,object_16,irrelevant,letter,1.49333333333333,0.466,offset,low,center,letter_04,1.15333333333333,1,1.95933333333333,14,180532.5256776,NaN,0,cr,2,180534.4750016,0,NaN,NaN,0,0,180534.0144934,NaN,180534.5151366,0,646,683,NaN,NaN
124,4,face_03,object_16,irrelevant,letter,0.506666666666667,0.232,onset,high,left,letter_16,0.5,1,0.232,46,180541.0076801,NaN,0,cr,1,180541.22968,1000,0,180541.7290761,1000,0,180541.5274354,NaN,180542.9968282,0,239,273,NaN,0.499396100000013
125,4,face_03,object_16,non-target,object,1,0.232,onset,low,center,object_14,0.673333333333333,1,0.232,204,180545.7947273,NaN,0,cr,2,180546.0167462,1000,1,180546.5576673,1000,0,180546.7893494,NaN,180547.7836726,0,261,297,NaN,0.540921099978732
126,4,face_03,object_16,irrelevant,false_font,1.49333333333333,0.232,onset,low,center,false_font_13,0.513333333333333,1,0.232,143,180551.0325747,NaN,0,cr,2,180551.2545233,1000,1,180551.7577944,1000,0,180552.5210312,NaN,180553.0217404,0,261,243,NaN,0.50327109999489
127,4,face_03,object_16,non-target,object,1.49333333333333,0.232,onset,low,left,object_04,0.526666666666667,1,0.232,214,180555.6320133,NaN,0,cr,2,180555.8539837,0,NaN,NaN,0,0,180557.120671,NaN,180557.6211569,0,236,226,NaN,NaN
128,4,face_03,object_16,non-target,face,1,0.232,onset,high,center,face_14,0.886666666666667,1,0.232,84,180560.4532385,NaN,0,cr,1,180560.6754908,1100,1,180561.2176859,1100,0,180561.4484844,NaN,180562.4424662,0,276,285,NaN,0.542195099988021
129,4,face_03,object_16,non-target,face,1,0,onset,high,center,face_05,0.993333333333333,1,0,75,180566.0125792,NaN,0,cr,1,180566.0142687,1100,1,180567.953611,1100,0,180567.0081973,NaN,180568.0015524,0,323,925,NaN,1.93934230000013
130,4,face_03,object_16,irrelevant,false_font,1,0.466,onset,low,center,false_font_10,0.646666666666667,1,0.466,140,180574.7521681,NaN,0,cr,2,180575.207846,1000,1,180575.6259767,1000,0,180575.7488313,NaN,180576.7415018,0,269,300,NaN,0.418130699981702
131,4,face_03,object_16,irrelevant,letter,1,0,offset,low,left,letter_14,0.753333333333333,1,1,44,180579.5894013,NaN,0,cr,2,180580.5794262,1000,1,180581.1529986,1000,0,180580.585687,NaN,180581.5786476,0,304,504,NaN,0.57357239999692
132,4,face_03,object_16,irrelevant,letter,1,0.232,offset,low,center,letter_19,0.566666666666667,1,1.232,29,180585.3680047,NaN,0,cr,2,180586.5899149,1000,1,180587.0296051,1000,0,180586.3631239,NaN,180587.3569484,0,296,249,NaN,0.439690200000769
133,4,face_03,object_16,non-target,object,0.506666666666667,0.466,onset,high,right,object_17,1.24666666666667,1,0.466,247,180590.7569042,NaN,0,cr,1,180591.2129735,1100,1,180591.5770003,1100,0,180591.2582905,NaN,180592.7459091,0,260,249,NaN,0.364026800001739
134,4,face_03,object_16,non-target,face,1.49333333333333,0.466,offset,low,right,face_02,0.513333333333333,1,1.95933333333333,112,180595.8700684,NaN,0,cr,2,180597.8195985,0,NaN,NaN,0,0,180597.3589405,NaN,180597.8591059,0,254,270,NaN,NaN
135,4,face_03,object_16,irrelevant,letter,1.49333333333333,0.116,offset,low,center,letter_07,0.553333333333333,1,1.60933333333333,17,180601.6554346,NaN,0,cr,2,180603.255106,0,NaN,NaN,0,0,180603.1435927,NaN,180603.6445229,0,290,281,NaN,NaN
136,4,face_03,object_16,non-target,face,1,0.116,onset,high,left,face_17,0.793333333333333,1,0.116,107,180607.1277753,NaN,0,cr,1,180607.2338107,1100,1,180607.6775014,1100,0,180608.1229783,NaN,180609.1167832,0,346,252,NaN,0.443690699990839
137,4,face_03,object_16,non-target,face,1,0.116,onset,low,center,face_15,0.86,1,0.116,85,180612.0240992,NaN,0,cr,2,180612.1300779,1000,1,180612.6809725,1000,0,180613.0197167,NaN,180614.0134314,0,355,286,NaN,0.550894600019092
138,4,face_03,object_16,non-target,object,1,0.232,onset,high,left,object_06,0.513333333333333,1,0.232,216,180617.0842746,NaN,0,cr,1,180617.3062197,1100,1,180618.0370869,1100,0,180618.0797421,NaN,180619.0732705,0,300,535,NaN,0.730867200007197
139,4,face_03,object_16,irrelevant,letter,0.506666666666667,0.466,offset,low,right,letter_02,0.513333333333333,1,0.972666666666667,52,180622.7672236,NaN,0,cr,2,180623.7298698,1000,1,180624.0697621,1000,0,180623.2692106,NaN,180624.7561846,0,252,361,NaN,0.339892299991334
140,4,face_03,object_16,target,face,1.49333333333333,0,onset,high,left,face_03,0.886666666666667,1,0,93,180627.7514992,180629.1775542,1,hit,1,180627.7531138,1100,1,180628.4177185,1100,1,180629.2398425,NaN,180629.7404475,0,856,261,1.42605499998899,0.664604699995834
141,4,face_03,object_16,non-target,object,1,0,onset,high,right,object_20,0.553333333333333,1,0,250,180634.7883821,NaN,0,cr,1,180634.7902307,1100,1,180635.3130665,1100,0,180635.7839135,NaN,180636.7775324,0,317,311,NaN,0.522835800016765
142,4,face_03,object_16,irrelevant,false_font,1,0,offset,high,right,false_font_10,0.606666666666667,1,1,180,180640.2481557,NaN,0,cr,1,180641.2380578,1100,1,180641.9769018,1100,0,180641.2444143,NaN,180642.2373397,0,263,564,NaN,0.738844000006793
143,4,face_03,object_16,irrelevant,false_font,1,0.466,offset,low,right,false_font_20,0.926666666666667,1,1.466,190,180645.8779172,NaN,0,cr,2,180647.3336573,1000,1,180647.7019882,1000,0,180646.8733693,NaN,180647.8672077,0,195,236,NaN,0.368330899975263
144,4,face_03,object_16,target,face,0.506666666666667,0.116,onset,high,left,face_03,0.553333333333333,1,0.116,93,180651.4049846,180652.4616541,1,hit,1,180651.5107751,1100,1,180652.0928863,1100,1,180651.9069575,NaN,180653.3939535,0,314,795,1.05666950001614,0.582111199997598
145,4,face_03,object_16,non-target,object,1,0.466,offset,high,center,object_02,0.566666666666667,1,1.466,192,180657.5361311,NaN,0,cr,1,180658.9920838,0,NaN,NaN,0,0,180658.5321001,NaN,180659.5255661,0,303,487,NaN,NaN
146,4,face_03,object_16,irrelevant,false_font,0.506666666666667,0.232,offset,high,center,false_font_14,0.553333333333333,1,0.738666666666667,144,180663.2527843,NaN,0,cr,1,180663.9814982,1100,1,180664.76107,1100,0,180663.7547776,NaN,180665.2419627,0,250,464,NaN,0.779571799997939
147,5,face_20,object_09,non-target,object,1,0.466,offset,low,right,object_18,0.873333333333333,1,1.466,248,180724.6622142,NaN,0,cr,2,180726.1184028,1100,0,180726.6286943,1100,0,180725.6592001,NaN,180726.6511556,180723.0144413,207,396,NaN,0.510291499987943
148,5,face_20,object_09,non-target,object,1,0.466,offset,low,left,object_17,0.873333333333333,1,1.466,227,180731.0159251,NaN,0,cr,2,180732.4722745,0,NaN,NaN,0,0,180732.0113112,NaN,180733.0052007,0,279,537,NaN,NaN
149,5,face_20,object_09,irrelevant,false_font,1.49333333333333,0,offset,high,right,false_font_15,0.513333333333333,1,1.49333333333333,185,180740.0079092,NaN,0,cr,1,180741.4913838,1100,1,180741.9933564,1100,0,180741.4988637,NaN,180741.9968356,0,255,262,NaN,0.501972600002773
150,5,face_20,object_09,non-target,object,1.49333333333333,0.466,onset,low,center,object_15,0.62,1,0.466,205,180745.4386494,NaN,0,cr,2,180745.8944104,1000,1,180746.5251218,1000,0,180746.9277821,NaN,180747.4275651,0,400,273,NaN,0.630711399979191
151,5,face_20,object_09,target,object,0.506666666666667,0,onset,high,center,object_09,0.54,1,0,199,180750.8571368,180751.8298127,1,hit,1,180750.8584715,1100,1,180752.1414396,1,1100,180751.3583161,NaN,180752.8460439,0,693,653,0.972675899975002,1.28296810001484
152,5,face_20,object_09,non-target,face,1.49333333333333,0.232,onset,low,right,face_04,0.62,1,0.232,114,180758.354784,NaN,0,cr,2,180758.5768997,1000,1,180759.1607006,1000,0,180759.8453616,NaN,180760.3437678,0,322,247,NaN,0.583800899999915
153,5,face_20,object_09,non-target,face,1.49333333333333,0.232,onset,high,left,face_14,0.513333333333333,1,0.232,104,180765.274152,NaN,0,cr,1,180765.4959787,1100,1,180766.0816977,1100,0,180766.7626712,NaN,180767.2634063,0,562,374,NaN,0.585718999995152
154,5,face_20,object_09,irrelevant,letter,1,0.116,onset,low,right,letter_13,0.966666666666667,1,0.116,63,180771.7050495,NaN,0,cr,2,180771.8109109,1000,1,180772.261569,1000,0,180772.7001193,NaN,180773.694246,0,200,231,NaN,0.450658099987777
155,5,face_20,object_09,irrelevant,false_font,1.49333333333333,0.116,onset,low,center,false_font_12,0.98,1,0.116,142,180776.845,NaN,0,cr,2,180776.9514488,1000,1,180777.3645221,1000,0,180778.333968,NaN,180778.8342263,0,207,340,NaN,0.413073299976531
156,5,face_20,object_09,irrelevant,letter,1,0.232,offset,low,right,letter_02,0.806666666666667,1,1.232,52,180782.202176,NaN,0,cr,2,180783.424397,1000,1,180783.9014679,1000,0,180783.1969345,NaN,180784.191148,0,312,294,NaN,0.477070900000399
157,5,face_20,object_09,irrelevant,false_font,1,0,offset,low,center,false_font_17,0.846666666666667,1,1,147,180787.7492289,NaN,0,cr,2,180788.7393377,1000,1,180789.1976719,1000,0,180788.7452663,NaN,180789.738211,0,308,386,NaN,0.458334199996898
158,5,face_20,object_09,target,face,1.49333333333333,0.232,offset,high,left,face_20,0.526666666666667,1,1.72533333333333,110,180793.0926159,180794.2456421,1,hit,1,180794.8079242,0,NaN,NaN,1,0,180794.5811771,NaN,180795.0816714,0,660,276,1.15302619998693,NaN
159,5,face_20,object_09,non-target,face,1,0,onset,high,center,face_18,1.18,1,0,88,180799.7418113,NaN,0,cr,1,180799.7431673,1100,1,180800.3173175,1100,0,180800.7369871,NaN,180801.731261,0,416,275,NaN,0.574150200001895
160,5,face_20,object_09,non-target,face,0.506666666666667,0.466,offset,high,center,face_19,0.753333333333333,1,0.972666666666667,89,180805.0112956,180805.8408734,1,fa,1,180805.9742205,1100,1,180806.6283816,1,1100,180805.5130219,NaN,180807.0002024,0,366,587,0.82957780000288,0.654161099984776
161,5,face_20,object_09,irrelevant,letter,1,0.466,offset,high,center,letter_10,0.633333333333333,1,1.466,20,180811.2157523,NaN,0,cr,1,180812.671745,1100,1,180813.141307,1100,0,180812.2110348,NaN,180813.2050014,0,296,437,NaN,0.469562000012957
162,5,face_20,object_09,irrelevant,letter,0.506666666666667,0.466,onset,low,right,letter_13,0.633333333333333,1,0.466,63,180817.1841086,NaN,0,cr,2,180817.6405133,1000,1,180818.1174839,1000,0,180817.6855743,NaN,180819.1735795,0,388,424,NaN,0.476970599993365
163,5,face_20,object_09,non-target,object,1.49333333333333,0,offset,high,right,object_20,0.593333333333333,1,1.49333333333333,250,180822.991649,NaN,0,cr,1,180824.474662,0,NaN,NaN,0,0,180824.4807149,NaN,180824.9807341,0,230,276,NaN,NaN
164,5,face_20,object_09,irrelevant,letter,1,0.466,offset,high,right,letter_08,0.726666666666667,1,1.466,58,180914.5875171,NaN,0,cr,1,180916.0436076,0,NaN,NaN,0,0,180915.600149,NaN,180916.5768358,0,214,356,NaN,NaN
165,5,face_20,object_09,non-target,object,1.49333333333333,0,offset,low,right,object_15,0.566666666666667,1,1.49333333333333,245,180923.3877126,NaN,0,cr,2,180924.8712518,0,NaN,NaN,0,0,180924.8782495,NaN,180925.3767518,0,276,376,NaN,NaN
166,5,face_20,object_09,non-target,face,1.49333333333333,0.116,offset,low,right,face_16,1.03333333333333,1,1.60933333333333,126,180929.116562,NaN,0,cr,2,180930.7157255,0,NaN,NaN,0,0,180930.6050169,NaN,180931.1055834,0,541,190,NaN,NaN
167,5,face_20,object_09,non-target,object,1,0.116,onset,low,center,object_12,0.5,1,0.116,202,180935.9590576,NaN,0,cr,2,180936.0648648,1000,1,180936.649103,1000,0,180936.9552965,NaN,180937.9481305,0,195,285,NaN,0.584238200011896
168,5,face_20,object_09,non-target,object,0.506666666666667,0.232,offset,high,center,object_01,0.606666666666667,1,0.738666666666667,191,180940.5549732,NaN,0,cr,1,180941.2836969,1100,1,180941.8014861,1100,0,180941.0567903,NaN,180942.5438755,0,251,259,NaN,0.517789200006519
169,5,face_20,object_09,irrelevant,false_font,0.506666666666667,0,offset,low,center,false_font_14,0.566666666666667,1,0.506666666666667,144,180945.6527033,NaN,0,cr,2,180946.1494782,1000,1,180946.5453182,1000,0,180946.1557325,NaN,180947.6416614,0,224,370,NaN,0.395839999982854
170,5,face_20,object_09,irrelevant,false_font,1.49333333333333,0.116,offset,high,left,false_font_08,0.513333333333333,1,1.60933333333333,158,180950.4846087,NaN,0,cr,1,180952.08397,0,NaN,NaN,0,0,180951.9731757,NaN,180952.4737032,0,251,237,NaN,NaN
171,5,face_20,object_09,irrelevant,false_font,1,0.116,onset,high,center,false_font_15,0.94,1,0.116,145,180955.5673102,NaN,0,cr,1,180955.6733479,0,NaN,NaN,0,0,180956.5621464,NaN,180957.5564155,0,263,34,NaN,NaN
172,5,face_20,object_09,non-target,face,1,0,onset,low,center,face_14,0.54,1,0,84,180963.5935185,NaN,0,cr,2,180963.5947507,1000,1,180964.3048965,1000,0,180964.5901626,NaN,180965.5824437,0,583,234,NaN,0.710145799996099
173,5,face_20,object_09,irrelevant,false_font,1.49333333333333,0.232,offset,high,right,false_font_06,0.753333333333333,1,1.72533333333333,176,180969.5847894,NaN,0,cr,1,180971.3000901,0,NaN,NaN,0,0,180971.0736453,NaN,180971.5740725,0,310,310,NaN,NaN
174,5,face_20,object_09,non-target,face,1,0.116,offset,low,right,face_07,0.606666666666667,1,1.116,117,180975.9185335,NaN,0,cr,2,180977.0246228,1000,1,180977.3809916,1000,0,180976.9143202,NaN,180977.9074861,0,498,243,NaN,0.356368799984921
175,5,face_20,object_09,target,face,1,0,onset,low,left,face_20,0.566666666666667,1,0,110,180981.3003873,180982.2409519,1,hit,2,180981.3017674,1100,0,180982.5891269,1,1100,180982.2954578,NaN,180983.2893132,0,581,617,0.940564599994104,1.28735950001283
176,5,face_20,object_09,irrelevant,letter,1.49333333333333,0.116,offset,high,center,letter_10,0.673333333333333,1,1.60933333333333,20,180988.5480739,NaN,0,cr,1,180990.1471709,0,NaN,NaN,0,0,180990.0378867,NaN,180990.5371959,0,216,557,NaN,NaN
177,5,face_20,object_09,irrelevant,letter,0.506666666666667,0,onset,high,right,letter_05,0.5,1,0,55,180994.3837436,NaN,0,cr,1,180994.3858743,1100,1,180995.1489464,1100,0,180994.8859219,NaN,180996.3731191,0,234,483,NaN,0.763072100002319
178,5,face_20,object_09,irrelevant,letter,0.506666666666667,0.116,onset,high,left,letter_18,0.566666666666667,1,0.116,48,180999.2742863,NaN,0,cr,1,180999.3802215,1100,1,181000.0249978,1100,0,180999.7757442,NaN,181001.2632108,0,339,227,NaN,0.644776300003286
179,5,face_20,object_09,irrelevant,false_font,1,0.466,offset,low,center,false_font_03,0.54,1,1.466,133,181004.084907,NaN,0,cr,2,181005.5410735,1000,1,181005.9563943,1000,0,181005.0801715,NaN,181006.0741852,0,248,379,NaN,0.415320800006157
180,5,face_20,object_09,non-target,object,1,0,onset,low,center,object_11,0.606666666666667,1,0,201,181009.6734873,NaN,0,cr,2,181009.674651,1000,1,181010.1049356,1000,0,181010.6690863,NaN,181011.6627316,0,216,200,NaN,0.430284599977313
181,5,face_20,object_09,non-target,face,1.49333333333333,0.466,onset,low,right,face_18,1.52666666666667,1,0.466,128,181014.0038964,NaN,0,cr,2,181014.4600288,1000,1,181014.8253546,1000,0,181015.4934888,NaN,181015.9930289,0,211,214,NaN,0.365325799997663
182,6,face_07,object_03,irrelevant,false_font,1.49333333333333,0.116,offset,high,right,false_font_12,0.673333333333333,1,1.60933333333333,182,181042.5695503,NaN,0,cr,1,181044.1689929,0,NaN,NaN,0,0,181044.0588891,NaN,181044.558489,181039.7344047,232,276,NaN,NaN
183,6,face_07,object_03,irrelevant,false_font,1.49333333333333,0.466,onset,low,left,false_font_09,0.553333333333333,1,0.466,159,181048.7020749,NaN,0,cr,2,181049.1579908,1000,1,181049.7241461,1000,0,181050.1905396,NaN,181050.691017,0,291,275,NaN,0.566155299980892
184,6,face_07,object_03,target,object,1.49333333333333,0.466,onset,high,center,object_03,1.1,1,0.466,193,181053.3747793,181054.1967838,1,hit,1,181053.8313009,1100,1,181054.6521054,1,1100,181054.8629484,NaN,181055.3636826,0,323,611,0.822004499990726,0.820804499991937
185,6,face_07,object_03,irrelevant,false_font,1.49333333333333,0.232,onset,high,center,false_font_18,0.74,1,0.232,148,181059.3947666,NaN,0,cr,1,181059.6165176,1100,1,181060.3999799,1100,0,181060.8834881,NaN,181061.3838549,0,206,514,NaN,0.783462299994426
186,6,face_07,object_03,non-target,face,1,0.466,onset,low,left,face_10,0.646666666666667,1,0.466,100,181065.0256632,NaN,0,cr,2,181065.4819068,1000,1,181066.060731,1000,0,181066.020436,NaN,181067.0145979,0,430,273,NaN,0.578824199998053
187,6,face_07,object_03,non-target,face,0.506666666666667,0.116,onset,low,left,face_01,0.7,1,0.116,91,181070.4205835,NaN,0,cr,2,181070.5263217,1000,1,181071.0802548,1000,0,181070.9227885,NaN,181072.4095609,0,229,341,NaN,0.553933100018185
188,6,face_07,object_03,irrelevant,false_font,1,0.232,offset,low,left,false_font_06,0.646666666666667,1,1.232,156,181076.3135681,NaN,0,cr,2,181077.5355633,1000,1,181078.1523565,1000,0,181077.3086836,NaN,181078.3028636,0,309,268,NaN,0.6167931999953
189,6,face_07,object_03,irrelevant,false_font,1,0.466,offset,low,left,false_font_14,0.54,1,1.466,164,181081.5406601,NaN,0,cr,2,181082.9966276,1000,1,181083.4401294,1000,0,181082.5358008,NaN,181083.5300835,0,241,381,NaN,0.443501800007652
190,6,face_07,object_03,irrelevant,letter,1.49333333333333,0.232,offset,high,center,letter_05,0.553333333333333,1,1.72533333333333,15,181087.3453434,NaN,0,cr,1,181089.0606867,0,NaN,NaN,0,0,181088.8333734,NaN,181089.3345991,0,292,269,NaN,NaN
191,6,face_07,object_03,target,object,0.506666666666667,0.116,offset,low,left,object_03,0.606666666666667,1,0.622666666666667,213,181092.6156933,181093.3209248,1,hit,2,181093.2288812,1000,1,181093.7922794,1,1000,181093.1174269,NaN,181094.6045993,0,274,477,0.70523150000372,0.563398199999938
192,6,face_07,object_03,non-target,face,0.506666666666667,0.232,offset,high,left,face_08,0.5,1,0.738666666666667,98,181097.7479965,NaN,0,cr,1,181098.4764901,1100,1,181098.9168447,1100,0,181098.2496781,NaN,181099.7372948,0,296,220,NaN,0.440354599995771
193,6,face_07,object_03,non-target,object,1,0.116,onset,high,center,object_12,0.846666666666667,1,0.116,202,181103.5059962,NaN,0,cr,1,181103.6119359,1100,1,181104.192139,1100,0,181104.5015064,NaN,181105.4949201,0,255,468,NaN,0.580203099991195
194,6,face_07,object_03,non-target,object,0.506666666666667,0,offset,low,right,object_14,0.593333333333333,1,0.506666666666667,244,181109.9319038,NaN,0,cr,2,181110.4283368,1000,1,181110.9847796,1000,0,181110.4347248,NaN,181111.9214941,0,262,440,NaN,0.556442800007062
195,6,face_07,object_03,non-target,object,1,0.466,offset,low,center,object_13,0.593333333333333,1,1.466,203,181115.2148055,NaN,0,cr,2,181116.6709439,1000,1,181117.0928159,1000,0,181116.2097059,NaN,181117.2040808,0,313,309,NaN,0.421871999977157
196,6,face_07,object_03,irrelevant,letter,1,0.466,offset,high,left,letter_03,0.606666666666667,1,1.466,33,181121.7672118,NaN,0,cr,1,181123.2229334,1100,1,181123.7163226,1100,0,181122.7626266,NaN,181123.7564008,0,226,329,NaN,0.493389200011734
197,6,face_07,object_03,irrelevant,false_font,1.49333333333333,0.466,offset,high,left,false_font_20,0.633333333333333,1,1.95933333333333,170,181127.4437582,NaN,0,cr,1,181129.3935123,0,NaN,NaN,0,0,181128.9317822,NaN,181129.4327303,0,284,302,NaN,NaN
198,6,face_07,object_03,non-target,object,1,0,offset,high,center,object_10,0.873333333333333,1,1,200,181133.3673781,181134.2686192,1,fa,1,181134.3577844,1100,1,181134.9238204,1,1100,181134.3654225,NaN,181135.3562788,0,560,390,0.901241100014886,0.566036000003805
199,6,face_07,object_03,non-target,object,1,0.466,onset,high,right,object_01,0.74,1,0.466,231,181139.8066809,NaN,0,cr,1,181140.2628025,1100,1,181140.8046339,1100,0,181140.8017921,NaN,181141.7957493,0,286,289,NaN,0.541831400012597
200,6,face_07,object_03,target,face,1,0.466,onset,high,center,face_07,0.66,1,0.466,77,181144.6489906,181145.9248722,1,hit,1,181145.1049553,1100,1,181146.2807228,1,1100,181145.6439072,NaN,181146.6378916,0,694,327,1.27588160001324,1.17576750001172
201,6,face_07,object_03,non-target,object,0.506666666666667,0.116,onset,high,right,object_05,0.553333333333333,1,0.116,235,181151.537563,NaN,0,cr,1,181151.6438409,1100,1,181152.1326867,1100,0,181152.040491,NaN,181153.5265066,0,234,281,NaN,0.488845799991395
202,6,face_07,object_03,irrelevant,letter,1.49333333333333,0.232,onset,high,left,letter_09,0.78,1,0.232,39,181156.7431999,NaN,0,cr,1,181156.9651275,1100,1,181157.4358887,1100,0,181158.2320015,NaN,181158.7323072,0,442,315,NaN,0.470761200005654
203,6,face_07,object_03,irrelevant,letter,1.49333333333333,0.466,onset,low,center,letter_10,0.553333333333333,1,0.466,20,181162.1214144,NaN,0,cr,2,181162.5774187,1000,1,181162.9848532,1000,0,181163.6102136,NaN,181164.1106391,0,322,380,NaN,0.40743449999718
204,6,face_07,object_03,non-target,face,1,0.466,onset,high,center,face_08,0.646666666666667,1,0.466,78,181167.1908794,NaN,0,cr,1,181167.6467182,1100,1,181168.0966422,1100,0,181168.1859785,NaN,181169.1798038,0,323,355,NaN,0.449923999985913
205,6,face_07,object_03,target,object,1,0.232,onset,high,center,object_03,1.03333333333333,1,0.232,193,181173.4440468,181174.0965582,1,hit,1,181173.6658781,1000,0,181174.628404,1,1000,181174.4391489,NaN,181175.4329457,0,345,382,0.652511399996001,0.962525899987668
206,6,face_07,object_03,irrelevant,letter,0.506666666666667,0.466,onset,high,center,letter_10,0.58,1,0.466,20,181179.06984,NaN,0,cr,1,181179.5256193,1100,1,181180.3039461,1100,0,181179.5717884,NaN,181181.0593017,0,332,252,NaN,0.778326800005743
207,6,face_07,object_03,target,object,1,0,offset,low,right,object_03,0.686666666666667,1,1,233,181184.5607688,181185.1204786,1,hit,2,181185.5505757,1000,1,181186.244744,1,1000,181185.5572308,NaN,181186.5496764,0,279,535,0.559709799999837,0.694168299989542
208,6,face_07,object_03,non-target,face,1.49333333333333,0,onset,high,center,face_11,0.58,1,0,81,181190.5400139,181191.2765236,1,fa,1,181190.5418735,1100,1,181191.4527272,1,1100,181192.0281744,NaN,181192.5289146,0,626,401,0.736509700014722,0.910853699984727
209,6,face_07,object_03,non-target,face,0.506666666666667,0.232,offset,low,left,face_18,0.566666666666667,1,0.738666666666667,108,181197.9700764,NaN,0,cr,2,181198.6988369,1000,1,181199.360628,1000,0,181198.4736464,NaN,181199.9595841,0,288,522,NaN,0.661791099992115
210,6,face_07,object_03,target,face,1,0.116,offset,low,center,face_07,0.793333333333333,1,1.116,77,181204.3792906,181205.2250797,1,hit,2,181205.4854884,1000,1,181205.9885432,1,1000,181205.3744965,NaN,181206.3682471,0,372,379,0.845789100014372,0.50305479997769
211,6,face_07,object_03,irrelevant,letter,1.49333333333333,0,offset,high,left,letter_08,0.606666666666667,1,1.49333333333333,38,181209.9275153,NaN,0,cr,1,181211.4107326,1100,1,181211.8683889,1100,0,181211.4165384,NaN,181211.9164754,0,221,297,NaN,0.457656300015515
212,6,face_07,object_03,non-target,face,0.506666666666667,0.466,offset,high,center,face_08,0.593333333333333,1,0.972666666666667,78,181214.8679699,NaN,0,cr,1,181215.8305893,1100,1,181216.5766097,1100,0,181215.3701523,NaN,181216.857115,0,268,517,NaN,0.74602039999445
213,6,face_07,object_03,non-target,object,0.506666666666667,0.116,onset,high,left,object_05,0.686666666666667,1,0.116,215,181220.4389163,NaN,0,cr,1,181220.5448257,1100,1,181221.0319496,1100,0,181220.9406743,NaN,181222.4282473,0,176,334,NaN,0.487123900005827
214,6,face_07,object_03,irrelevant,letter,1.49333333333333,0.232,onset,high,right,letter_11,0.993333333333333,1,0.232,61,181225.9240437,NaN,0,cr,1,181226.1459726,1000,0,181226.6843258,1000,0,181227.4129154,NaN,181227.9132322,0,269,480,NaN,0.538353199983248
215,6,face_07,object_03,non-target,face,1,0,onset,low,left,face_12,0.566666666666667,1,0,102,181231.9577902,NaN,0,cr,2,181231.9597338,1000,1,181232.5439484,1000,0,181232.953631,NaN,181233.9471182,0,407,379,NaN,0.584214600006817
216,6,face_07,object_03,non-target,object,1,0.116,offset,low,center,object_09,0.913333333333333,1,1.116,199,181236.8203544,181237.6359415,1,fa,2,181237.9261791,1000,1,181238.5565344,1,1000,181237.816465,NaN,181238.8093394,0,247,598,0.815587099990807,0.63035530000343
217,6,face_07,object_03,irrelevant,false_font,1,0,offset,low,right,false_font_01,0.62,1,1,171,181243.1586676,NaN,0,cr,2,181244.1489129,1000,1,181244.6723022,1000,0,181244.1553448,NaN,181245.1476174,0,276,542,NaN,0.523389299982227
218,6,face_07,object_03,irrelevant,letter,1.49333333333333,0,onset,high,center,letter_19,0.913333333333333,1,0,29,181250.0647206,NaN,0,cr,1,181250.0659235,1100,1,181250.6605028,1100,0,181251.553912,NaN,181252.0542012,0,282,336,NaN,0.594579299999168
219,6,face_07,object_03,irrelevant,false_font,1.49333333333333,0,onset,high,right,false_font_04,0.633333333333333,1,0,174,181255.7425963,NaN,0,cr,1,181255.744127,1100,1,181256.4080237,1100,0,181257.2326388,NaN,181257.7319727,0,328,544,NaN,0.663896699988982
220,7,letter_11,false_font_10,irrelevant,object,0.506666666666667,0.116,onset,low,center,object_01,0.566666666666667,1,0.116,191,181279.6491668,NaN,0,cr,2,181279.7550894,0,NaN,NaN,0,0,181280.1529612,NaN,NaN,181278.5575355,0,0,NaN,NaN
